aX,aY,aZ,gX,gY,gZ
0.255,-0.413,2.161,12.390,-68.604,-19.409
0.252,-0.415,2.435,22.339,-80.811,-20.447
0.238,-0.426,2.692,35.706,-90.393,-22.705
0.182,-0.469,2.866,55.420,-91.675,-24.414
0.107,-0.516,2.928,81.238,-77.271,-21.118
0.044,-0.508,2.886,108.521,-49.683,-9.094
-0.000,-0.458,2.767,133.972,-18.921,8.972
-0.035,-0.393,2.596,154.114,5.798,28.687
-0.043,-0.303,2.427,167.969,22.278,46.692
-0.028,-0.214,2.280,176.636,29.175,61.768
0.006,-0.102,2.177,182.373,27.893,72.021
0.047,0.020,2.109,185.120,27.344,78.186
0.081,0.129,2.061,189.026,28.137,78.735
0.094,0.199,2.023,197.510,32.227,74.097
0.068,0.246,1.977,211.670,38.452,67.810
0.043,0.271,1.865,230.591,44.067,65.979
0.026,0.301,1.701,250.977,48.706,68.909
0.008,0.352,1.517,270.264,55.664,74.097
-0.017,0.392,1.312,285.278,66.162,78.613
-0.031,0.427,1.079,295.105,81.360,82.520
-0.034,0.484,0.902,295.044,98.389,84.106
-0.030,0.505,0.695,285.522,109.558,81.970
-0.000,0.510,0.480,270.813,120.056,75.562
-0.007,0.465,0.318,252.319,130.066,63.171
-0.034,0.380,0.182,237.915,137.817,49.744
-0.055,0.317,0.076,226.013,138.062,40.527
-0.048,0.279,-0.006,215.515,127.319,34.729
-0.035,0.229,-0.044,208.374,109.436,28.320
-0.008,0.161,-0.089,208.923,83.984,20.691
0.025,0.130,-0.090,210.388,54.016,13.672
0.075,0.053,-0.081,212.097,21.179,7.141
0.122,0.002,-0.172,214.172,-3.906,0.977
0.170,-0.029,-0.294,211.548,-12.756,-4.578
0.186,-0.114,-0.336,199.524,-7.751,-11.047
0.177,-0.203,-0.348,184.570,-0.793,-15.564
0.191,-0.267,-0.377,172.791,3.418,-16.052
0.223,-0.307,-0.457,165.955,4.578,-14.404
0.254,-0.326,-0.596,163.452,12.390,-14.404
0.357,-0.324,-0.800,157.104,28.931,-13.550
0.472,-0.314,-1.036,142.212,53.711,-18.005
0.440,-0.363,-1.252,121.887,81.421,-31.311
0.365,-0.450,-1.397,94.666,97.595,-42.969
0.321,-0.568,-1.427,61.218,90.515,-47.546
0.274,-0.657,-1.373,36.987,69.092,-46.143
0.265,-0.729,-1.289,25.391,35.645,-43.152
0.300,-0.733,-1.161,19.775,-2.319,-37.903
0.338,-0.757,-0.949,14.160,-38.818,-33.203
0.358,-0.820,-0.695,9.277,-63.049,-29.724
0.357,-0.841,-0.424,0.793,-66.772,-23.560
0.347,-0.906,-0.150,-9.949,-52.795,-14.648
0.349,-0.941,0.072,-17.639,-31.494,-2.991
0.404,-0.902,0.205,-19.653,-9.644,9.705
0.475,-0.848,0.231,-16.541,8.850,15.259
0.468,-0.826,0.200,-10.437,21.484,10.193
0.430,-0.861,0.157,-3.906,25.085,1.343
0.373,-0.919,0.115,2.319,21.545,-6.104
0.328,-0.953,0.065,8.301,16.113,-10.254
0.294,-0.966,0.037,10.071,9.888,-10.498
0.268,-0.984,0.016,9.155,5.432,-9.033
0.242,-1.003,-0.003,7.690,5.127,-7.202
0.210,-1.018,-0.012,4.700,5.798,-4.639
0.198,-1.035,-0.014,2.625,5.737,-0.732
0.201,-1.022,-0.013,1.953,4.395,5.554
0.230,-0.999,-0.006,1.221,1.465,11.292
0.257,-0.984,0.001,0.244,-1.343,14.465
0.274,-0.965,0.023,-0.732,-4.883,15.137
0.300,-0.962,0.038,-0.732,-11.047,15.869
0.325,-0.946,0.045,-0.183,-16.052,15.869
0.347,-0.945,0.045,0.122,-19.409,14.954
0.353,-0.947,0.047,-0.671,-21.301,13.123
0.369,-0.942,0.056,-1.770,-20.203,11.963
0.378,-0.945,0.075,-3.113,-18.921,11.475
0.376,-0.940,0.090,-3.357,-18.738,11.414
0.377,-0.933,0.103,-1.587,-19.226,11.902
0.377,-0.928,0.109,1.465,-20.813,13.428
0.381,-0.929,0.118,3.296,-22.339,15.625
0.389,-0.938,0.123,4.395,-21.179,17.883
0.395,-0.941,0.106,4.639,-16.846,21.179
0.429,-0.939,0.101,3.784,-10.986,24.841
0.470,-0.930,0.088,2.808,-6.470,27.161
0.520,-0.894,0.079,1.404,-3.723,26.306
0.550,-0.872,0.078,-0.122,-3.418,19.958
0.535,-0.885,0.088,0.122,-5.676,9.338
0.494,-0.911,0.097,2.380,-7.263,2.014
0.466,-0.925,0.101,2.930,-7.568,-0.305
0.448,-0.928,0.117,2.136,-7.874,0.000
0.439,-0.915,0.155,6.165,-7.324,1.038
0.429,-0.915,0.115,11.902,-3.357,2.075
0.418,-0.912,0.089,12.756,2.075,3.296
0.410,-0.915,0.092,11.414,6.409,5.066
0.405,-0.916,0.053,12.268,11.230,6.592
0.410,-0.919,0.046,10.620,12.146,7.019
0.409,-0.928,0.045,9.277,8.545,7.080
0.416,-0.922,0.034,9.521,3.052,8.240
0.422,-0.908,0.030,9.644,-2.197,9.094
0.427,-0.901,0.048,8.484,-6.104,8.118
0.430,-0.905,0.069,7.568,-8.484,6.348
0.428,-0.911,0.081,7.690,-9.888,4.944
0.423,-0.912,0.085,7.690,-9.583,4.333
0.417,-0.916,0.082,6.287,-7.263,4.395
0.413,-0.919,0.077,4.883,-4.333,4.578
0.411,-0.921,0.072,3.784,-1.770,5.310
0.412,-0.923,0.055,3.357,-0.061,6.165
0.413,-0.919,0.042,3.784,0.305,6.470
0.416,-0.918,0.019,4.578,-1.160,5.859
0.419,-0.918,-0.002,5.005,-2.747,4.272
0.432,-0.911,-0.015,4.639,-4.944,2.808
0.436,-0.900,-0.018,3.479,-8.789,0.427
0.436,-0.899,-0.002,1.709,-12.695,-2.686
0.423,-0.911,0.028,0.732,-16.418,-4.761
0.406,-0.906,0.066,0.793,-18.311,-5.432
0.396,-0.933,0.093,1.953,-18.677,-4.700
0.392,-0.932,0.098,2.930,-17.029,-2.930
0.404,-0.930,0.109,2.380,-13.062,0.427
0.420,-0.925,0.116,0.732,-8.606,2.930
0.430,-0.917,0.126,-0.916,-4.517,4.028
0.439,-0.916,0.133,-1.892,-2.075,4.211
0.443,-0.915,0.128,-1.831,-0.427,3.662
0.447,-0.914,0.119,-1.465,0.427,2.747

0.408,-0.255,2.013,38.208,-40.039,-19.043
0.429,-0.261,2.125,52.979,-41.748,-19.104
0.446,-0.255,2.236,68.909,-47.546,-20.691
0.443,-0.252,2.380,85.388,-58.228,-24.231
0.415,-0.253,2.528,101.563,-70.374,-27.466
0.357,-0.263,2.667,118.530,-78.552,-29.663
0.293,-0.302,2.766,138.000,-77.026,-28.259
0.212,-0.326,2.776,163.025,-65.002,-19.104
0.155,-0.336,2.644,194.092,-43.518,-2.197
0.130,-0.281,2.406,222.351,-14.404,19.470
0.118,-0.203,2.128,241.089,15.259,40.710
0.142,-0.089,1.852,250.610,39.978,58.594
0.201,0.064,1.638,251.770,55.542,69.397
0.275,0.205,1.498,245.117,57.251,69.702
0.271,0.281,1.439,232.117,48.035,60.730
0.226,0.291,1.445,219.116,33.875,48.584
0.171,0.286,1.459,208.496,19.104,40.588
0.085,0.275,1.479,200.989,6.653,38.696
0.012,0.255,1.452,201.294,4.272,43.030
-0.026,0.279,1.366,206.543,16.113,51.270
-0.085,0.307,1.244,212.708,36.011,59.753
-0.129,0.323,1.058,221.924,60.120,67.017
-0.135,0.358,0.824,231.262,86.060,72.266
-0.103,0.417,0.607,234.985,108.459,73.120
-0.064,0.409,0.388,234.314,122.559,66.162
-0.010,0.391,0.186,229.492,128.784,52.856
0.038,0.366,0.040,221.436,124.573,34.729
0.029,0.276,-0.083,217.590,111.206,12.756
0.014,0.148,-0.203,218.689,89.294,-5.798
0.019,0.032,-0.270,216.003,60.974,-16.052
0.032,-0.087,-0.267,205.994,28.870,-17.395
0.042,-0.159,-0.235,197.144,0.732,-11.353
0.093,-0.216,-0.202,191.833,-16.602,-3.357
0.164,-0.261,-0.190,188.599,-23.682,4.272
0.249,-0.274,-0.204,185.791,-21.851,10.376
0.296,-0.322,-0.212,176.697,-14.221,11.108
0.307,-0.388,-0.233,167.908,-3.296,9.216
0.301,-0.429,-0.276,160.767,8.484,8.667
0.302,-0.474,-0.317,150.940,17.822,7.324
0.317,-0.499,-0.388,139.832,24.109,4.822
0.334,-0.516,-0.464,127.197,28.748,1.099
0.360,-0.564,-0.508,114.258,27.710,-3.540
0.363,-0.601,-0.556,101.013,19.958,-6.897
0.360,-0.625,-0.604,93.567,11.902,-9.216
0.369,-0.645,-0.621,91.675,7.446,-9.399
0.395,-0.655,-0.643,89.233,5.981,-6.165
0.421,-0.655,-0.631,80.139,9.583,-2.747
0.444,-0.680,-0.567,67.505,17.639,-0.244
0.473,-0.684,-0.481,54.688,23.560,1.587
0.496,-0.682,-0.409,45.898,21.851,1.099
0.532,-0.687,-0.362,39.368,11.780,-3.052
0.532,-0.702,-0.290,31.799,-0.244,-10.071
0.491,-0.759,-0.194,22.827,-12.939,-18.250
0.431,-0.814,-0.090,17.212,-23.132,-24.841
0.369,-0.852,-0.016,16.357,-28.442,-27.100
0.332,-0.877,0.016,19.104,-27.710,-25.085
0.315,-0.871,0.007,21.851,-18.982,-19.775
0.310,-0.883,-0.003,22.339,-2.991,-14.526
0.298,-0.891,-0.017,18.860,13.245,-8.667
0.316,-0.896,-0.044,13.428,25.757,-3.540
0.331,-0.903,-0.081,8.667,32.654,-0.122
0.339,-0.902,-0.118,5.371,32.471,0.732
0.332,-0.906,-0.147,3.235,24.597,-0.183
0.316,-0.915,-0.148,2.380,12.268,-2.747
0.285,-0.937,-0.126,0.854,-0.244,-5.005
0.248,-0.950,-0.104,-1.892,-7.202,-5.310
0.208,-0.971,-0.077,-5.554,-8.423,-4.272
0.194,-0.980,-0.052,-8.789,-5.920,-0.977
0.220,-0.978,-0.016,-12.512,-1.648,3.967
0.263,-0.949,0.033,-16.174,0.854,7.996
0.303,-0.949,0.070,-18.188,0.305,7.874
0.337,-0.949,0.097,-18.494,-1.160,5.859
0.355,-0.945,0.114,-17.151,-3.418,5.432
0.374,-0.939,0.131,-15.381,-6.226,5.066
0.390,-0.947,0.151,-13.916,-7.935,4.089
0.392,-0.956,0.182,-13.000,-8.911,3.601
0.390,-0.967,0.205,-10.925,-10.071,4.272
0.387,-0.974,0.207,-8.301,-10.803,5.920
0.392,-0.970,0.204,-6.470,-10.681,7.751
0.397,-0.958,0.192,-5.371,-9.033,10.254
0.422,-0.940,0.188,-5.005,-5.554,12.390
0.449,-0.924,0.187,-3.906,-1.831,12.939
0.476,-0.911,0.181,-1.160,0.916,11.658
0.476,-0.923,0.155,0.977,3.235,9.033
0.470,-0.927,0.114,-0.244,6.042,5.554
0.460,-0.930,0.102,-3.357,7.874,2.136
0.439,-0.920,0.099,-4.028,8.911,0.244
0.412,-0.909,0.093,-1.160,9.033,-0.793
0.387,-0.924,0.069,4.761,6.470,-2.136
0.379,-0.925,0.053,7.996,3.906,-1.038
0.366,-0.922,0.066,6.958,0.549,0.427
0.356,-0.921,0.092,5.066,-1.770,1.404
0.357,-0.922,0.112,4.944,-3.540,2.869
0.362,-0.919,0.130,5.859,-4.333,4.761
0.375,-0.913,0.150,5.432,-4.395,5.554
0.384,-0.910,0.167,5.188,-3.174,5.188
0.393,-0.911,0.173,6.226,-1.404,4.517
0.400,-0.911,0.158,7.141,0.854,3.845
0.407,-0.913,0.144,6.531,2.808,3.723
0.411,-0.911,0.129,5.554,4.211,3.784
0.414,-0.904,0.106,6.042,4.456,4.517
0.423,-0.896,0.090,6.653,4.150,4.822
0.435,-0.894,0.074,6.836,3.113,5.066
0.441,-0.889,0.076,6.226,2.197,4.639
0.443,-0.890,0.087,5.310,1.160,4.089
0.450,-0.898,0.107,4.883,-0.305,3.357
0.443,-0.897,0.120,4.944,-1.221,2.869
0.439,-0.901,0.130,5.493,-1.404,2.136
0.422,-0.908,0.130,5.676,0.061,1.282
0.408,-0.917,0.125,5.981,3.235,0.732
0.401,-0.922,0.110,6.409,5.920,0.793
0.403,-0.922,0.092,4.944,8.118,0.549
0.406,-0.928,0.078,2.808,9.705,-0.549
0.410,-0.935,0.068,0.427,10.132,-1.831
0.405,-0.938,0.071,-1.953,9.460,-3.052
0.402,-0.948,0.071,-3.662,7.568,-4.089
0.387,-0.948,0.082,-5.005,5.127,-4.211
0.378,-0.951,0.091,-5.188,2.869,-4.089
0.372,-0.949,0.101,-4.089,1.282,-3.662

0.638,-0.049,2.027,70.496,-34.851,-55.054
0.577,-0.095,2.160,87.952,-40.466,-60.852
0.506,-0.140,2.221,109.680,-38.757,-59.998
0.450,-0.161,2.243,129.333,-27.405,-53.040
0.390,-0.163,2.219,146.973,-11.841,-42.358
0.387,-0.104,2.163,164.062,-0.305,-30.457
0.401,-0.031,2.110,178.528,4.639,-22.522
0.396,0.025,2.075,189.209,3.784,-21.667
0.356,0.040,2.035,196.655,1.648,-23.987
0.329,0.048,1.982,202.820,-0.610,-24.170
0.304,0.073,1.939,205.933,-3.357,-21.362
0.264,0.097,1.915,205.994,-5.676,-17.456
0.222,0.147,1.896,206.970,-6.653,-13.062
0.171,0.192,1.877,209.351,-5.737,-7.812
0.130,0.248,1.839,214.417,-3.174,-2.258
0.083,0.288,1.779,220.154,2.380,3.235
0.043,0.305,1.661,228.821,13.855,8.240
0.051,0.349,1.491,239.014,31.067,13.062
0.053,0.392,1.308,244.507,50.049,13.855
0.089,0.447,1.148,246.887,66.284,9.338
0.126,0.483,1.022,242.859,71.350,0.671
0.108,0.455,0.913,235.474,62.744,-10.742
0.024,0.374,0.794,229.126,48.950,-20.935
-0.054,0.296,0.708,227.173,39.368,-23.865
-0.125,0.226,0.622,229.492,37.537,-18.188
-0.135,0.180,0.501,232.910,45.044,-5.066
-0.087,0.227,0.445,225.037,50.659,11.353
-0.054,0.241,0.447,212.158,48.035,23.315
0.048,0.296,0.389,208.801,46.326,26.855
0.108,0.299,0.299,210.022,51.758,17.883
0.079,0.217,0.219,209.106,61.707,1.221
0.028,0.107,0.096,205.566,67.810,-8.179
0.042,0.031,-0.033,199.829,66.711,-9.338
0.095,0.006,-0.129,190.613,52.979,-7.324
0.137,-0.036,-0.193,184.387,32.715,-8.423
0.158,-0.101,-0.253,183.289,16.296,-11.047
0.152,-0.181,-0.297,183.777,6.531,-11.780
0.156,-0.234,-0.362,182.251,5.676,-7.324
0.189,-0.283,-0.418,176.270,14.526,-2.197
0.228,-0.305,-0.473,162.781,33.142,2.747
0.291,-0.344,-0.517,145.386,55.908,3.052
0.301,-0.411,-0.586,129.272,74.219,-2.502
0.284,-0.504,-0.662,117.676,81.604,-9.155
0.266,-0.553,-0.740,111.450,75.500,-13.794
0.265,-0.597,-0.820,107.971,58.655,-16.724
0.257,-0.657,-0.857,103.882,36.560,-19.592
0.244,-0.697,-0.852,98.267,15.198,-19.592
0.245,-0.725,-0.828,90.149,0.122,-16.357
0.277,-0.737,-0.778,78.430,-4.517,-11.841
0.326,-0.732,-0.702,63.293,-5.249,-7.568
0.375,-0.738,-0.625,47.058,-7.507,-5.554
0.413,-0.750,-0.532,32.715,-12.207,-7.202
0.441,-0.773,-0.419,20.020,-17.883,-10.437
0.458,-0.791,-0.278,10.376,-25.330,-14.160
0.465,-0.794,-0.147,7.629,-33.264,-19.287
0.443,-0.826,-0.039,10.498,-39.734,-27.039
0.376,-0.884,0.007,17.090,-43.762,-34.424
0.305,-0.930,0.025,22.766,-42.114,-36.987
0.277,-0.947,0.031,23.315,-31.250,-33.325
0.271,-0.945,0.015,17.151,-14.648,-26.917
0.268,-0.940,-0.010,7.751,2.686,-22.705
0.250,-0.960,-0.030,-0.793,16.052,-20.203
0.237,-0.979,-0.048,-5.432,19.043,-15.503
0.235,-0.991,-0.059,-6.958,13.000,-8.789
0.246,-0.995,-0.052,-8.179,1.953,-2.991
0.264,-0.986,0.004,-10.986,-8.667,2.136
0.279,-0.966,0.092,-12.573,-18.799,5.127
0.283,-0.959,0.159,-8.423,-25.391,3.601
0.265,-0.974,0.179,-1.404,-25.818,-0.671
0.239,-0.986,0.173,3.296,-19.897,-3.662
0.221,-0.997,0.157,4.333,-10.193,-3.418
0.232,-0.997,0.135,3.723,-2.136,-0.793
0.262,-0.986,0.108,2.441,2.686,2.014
0.284,-0.980,0.078,0.793,3.723,3.540
0.317,-0.981,0.061,-1.038,1.282,4.944
0.332,-0.981,0.067,-3.845,-2.625,5.615
0.330,-0.981,0.087,-6.348,-6.470,6.470
0.332,-0.974,0.111,-6.958,-9.644,7.751
0.330,-0.965,0.139,-6.348,-10.315,8.728
0.314,-0.967,0.147,-4.028,-8.667,7.874
0.302,-0.968,0.144,-1.831,-5.188,7.141
0.295,-0.966,0.142,-1.038,-1.099,6.958
0.289,-0.967,0.132,0.671,1.770,7.446
0.307,-0.949,0.122,2.625,2.869,8.667
0.323,-0.932,0.113,3.906,2.136,8.728
0.331,-0.928,0.104,5.249,0.732,7.385
0.334,-0.938,0.103,6.042,-1.892,7.324
0.339,-0.947,0.092,5.188,-4.700,7.874
0.344,-0.951,0.089,2.441,-6.409,7.751
0.361,-0.938,0.104,0.610,-7.629,7.874
0.367,-0.924,0.107,1.953,-6.104,7.141
0.361,-0.926,0.109,6.470,-3.906,4.150
0.349,-0.946,0.097,12.146,-1.038,0.977
0.348,-0.956,0.084,16.174,3.052,1.343
0.347,-0.959,0.082,16.968,4.761,2.869
0.340,-0.961,0.079,17.395,6.165,3.601
0.343,-0.958,0.065,17.395,5.920,4.822
0.343,-0.945,0.051,15.442,4.883,5.798
0.341,-0.944,0.039,12.573,3.784,6.287
0.345,-0.937,0.036,9.094,2.563,6.226
0.341,-0.937,0.036,6.042,0.061,6.348
0.349,-0.929,0.040,4.211,-3.113,6.653
0.356,-0.917,0.046,2.319,-4.883,5.798
0.354,-0.918,0.055,-0.427,-4.700,2.930
0.350,-0.927,0.073,-2.563,-2.686,0.305
0.337,-0.933,0.088,-2.930,0.000,-1.526
0.326,-0.939,0.083,-1.282,1.648,-3.052
0.317,-0.939,0.073,0.488,1.648,-3.296
0.312,-0.946,0.070,1.709,1.221,-3.052
0.303,-0.951,0.065,1.770,0.916,-1.770
0.310,-0.945,0.058,1.099,0.977,0.061
0.313,-0.943,0.048,0.183,1.160,1.648
0.321,-0.941,0.033,-1.526,1.526,2.563
0.333,-0.935,0.022,-3.967,1.953,2.991
0.341,-0.935,0.015,-6.592,2.502,2.502
0.338,-0.936,0.011,-8.789,2.502,1.404
0.340,-0.930,0.016,-10.742,1.831,0.610
0.339,-0.929,0.026,-11.963,-0.244,-0.061
0.337,-0.924,0.039,-12.146,-2.808,-1.404

0.512,-0.097,1.984,87.708,-35.706,-32.532
0.514,-0.086,2.024,98.816,-31.921,-29.663
0.509,-0.072,2.055,111.206,-33.936,-28.748
0.501,-0.058,2.079,125.305,-40.466,-28.625
0.480,-0.030,2.103,139.648,-47.852,-28.503
0.450,-0.017,2.166,153.076,-55.298,-28.381
0.412,0.012,2.243,169.800,-62.439,-26.367
0.429,0.054,2.307,190.002,-64.087,-22.827
0.403,0.100,2.378,209.045,-60.059,-19.653
0.357,0.112,2.383,229.614,-48.096,-16.052
0.318,0.140,2.341,247.803,-29.968,-9.705
0.299,0.193,2.236,262.573,-11.658,-1.892
0.294,0.256,2.072,276.184,7.202,3.662
0.268,0.283,1.879,286.194,22.644,4.028
0.219,0.282,1.704,293.884,24.353,2.258
0.162,0.288,1.547,298.889,14.893,1.465
0.144,0.305,1.438,300.232,5.188,2.686
0.103,0.297,1.359,294.312,-0.122,4.089
0.054,0.276,1.305,284.546,-0.732,8.911
0.043,0.286,1.256,274.414,4.578,17.578
0.028,0.325,1.203,263.611,15.503,25.696
-0.029,0.348,1.111,255.615,32.043,31.189
-0.072,0.350,0.966,256.287,54.626,36.133
-0.106,0.377,0.786,260.376,76.843,40.955
-0.137,0.391,0.561,265.442,90.515,45.105
-0.139,0.395,0.333,270.081,95.398,46.814
-0.106,0.387,0.134,271.301,96.008,45.898
-0.040,0.385,-0.013,264.648,87.524,40.283
0.026,0.375,-0.132,253.601,72.083,28.992
0.069,0.349,-0.212,242.432,55.542,11.353
0.058,0.272,-0.321,232.361,41.748,-9.949
0.058,0.199,-0.438,221.924,33.691,-29.236
0.007,0.082,-0.485,206.665,33.813,-45.166
-0.058,-0.051,-0.488,188.721,35.278,-51.514
-0.098,-0.160,-0.497,176.758,35.217,-46.692
-0.101,-0.206,-0.530,170.532,34.180,-34.485
-0.063,-0.233,-0.600,166.504,33.691,-20.996
0.007,-0.267,-0.707,164.551,34.302,-10.315
0.097,-0.276,-0.819,157.410,39.001,-4.150
0.197,-0.284,-0.899,142.578,45.593,-3.540
0.262,-0.329,-0.942,123.779,51.392,-8.667
0.296,-0.405,-0.961,103.271,55.664,-19.043
0.310,-0.487,-0.930,83.069,57.800,-29.846
0.278,-0.572,-0.875,67.505,52.002,-38.025
0.258,-0.642,-0.804,57.800,34.851,-41.321
0.253,-0.720,-0.714,53.406,14.038,-39.612
0.247,-0.768,-0.612,52.246,-7.751,-35.156
0.258,-0.793,-0.515,51.636,-26.672,-28.503
0.258,-0.831,-0.405,49.866,-37.109,-21.912
0.259,-0.863,-0.317,48.706,-38.696,-15.076
0.279,-0.876,-0.257,45.410,-32.410,-8.362
0.307,-0.865,-0.219,38.391,-19.958,-3.601
0.330,-0.851,-0.202,30.029,-4.456,-2.258
0.333,-0.870,-0.185,23.193,8.911,-4.700
0.344,-0.882,-0.141,16.602,14.160,-7.996
0.359,-0.893,-0.105,11.963,6.897,-11.963
0.366,-0.906,-0.058,12.024,-6.897,-17.944
0.356,-0.917,-0.028,15.381,-17.273,-23.071
0.329,-0.944,0.003,17.578,-28.442,-28.259
0.271,-0.981,0.024,19.897,-32.898,-31.006
0.216,-1.009,0.036,22.278,-26.611,-30.762
0.172,-1.034,0.013,23.804,-11.597,-27.222
0.138,-1.045,-0.023,23.132,7.507,-20.325
0.116,-1.048,-0.062,21.973,27.100,-12.329
0.123,-1.048,-0.121,21.362,39.917,-4.761
0.165,-1.017,-0.177,19.226,43.457,1.892
0.211,-0.982,-0.214,14.038,39.185,5.554
0.237,-0.971,-0.234,8.789,28.931,2.625
0.233,-0.984,-0.227,5.615,15.625,-2.625
0.216,-0.997,-0.213,3.418,2.258,-5.920
0.193,-1.007,-0.178,0.732,-6.348,-6.836
0.180,-1.016,-0.141,-1.953,-9.277,-6.042
0.179,-1.017,-0.105,-5.981,-7.751,-3.418
0.177,-1.009,-0.072,-10.315,-3.723,0.732
0.189,-1.003,-0.050,-12.512,0.916,4.272
0.203,-0.997,-0.044,-12.878,4.089,7.996
0.221,-0.989,-0.057,-10.986,4.761,10.437
0.241,-0.984,-0.062,-9.338,3.052,11.658
0.256,-0.986,-0.055,-7.751,0.305,12.207
0.257,-0.985,-0.052,-7.202,-1.160,12.512
0.274,-0.987,-0.042,-6.775,-3.418,11.475
0.277,-0.987,-0.025,-8.728,-3.601,10.315
0.261,-0.991,-0.000,-11.841,-3.113,8.667
0.246,-0.990,0.013,-13.672,-2.625,8.179
0.244,-0.986,0.021,-12.512,0.000,9.399
0.238,-0.987,0.046,-6.287,4.700,12.939
0.239,-0.983,0.025,1.343,6.348,15.137
0.253,-0.987,-0.028,2.014,6.470,16.235
0.262,-1.000,-0.005,-1.831,8.179,15.503
0.264,-0.992,-0.012,-0.305,7.935,15.259
0.289,-0.969,-0.040,4.822,5.127,14.648
0.311,-0.945,-0.057,9.460,4.578,12.207
0.310,-0.956,-0.049,11.963,4.456,6.470
0.296,-0.974,-0.051,12.390,2.869,2.197
0.275,-0.974,-0.046,11.108,0.122,1.709
0.263,-0.967,-0.049,10.010,0.977,2.808
0.258,-0.963,-0.048,7.568,2.319,3.784
0.262,-0.969,-0.044,4.639,4.883,4.456
0.272,-0.968,-0.029,1.770,6.470,5.676
0.284,-0.965,-0.019,0.183,5.188,6.897
0.298,-0.960,-0.011,0.244,2.258,7.507
0.310,-0.951,-0.000,1.099,-1.099,7.202
0.316,-0.957,-0.004,3.296,-3.662,6.104
0.318,-0.962,-0.015,5.127,-4.639,4.089
0.319,-0.965,-0.027,5.676,-3.540,2.380
0.314,-0.967,-0.037,4.944,-1.038,0.977
0.300,-0.971,-0.045,4.089,1.282,-0.122
0.292,-0.974,-0.047,3.418,2.380,-0.305
0.284,-0.969,-0.063,2.869,2.747,-0.061
0.282,-0.976,-0.068,2.441,2.686,0.977
0.280,-0.974,-0.063,1.404,1.953,2.625
0.285,-0.977,-0.058,1.221,0.488,3.479
0.295,-0.976,-0.046,0.854,-0.671,4.211
0.300,-0.974,-0.032,0.122,-1.526,3.906
0.305,-0.971,-0.021,0.122,-2.136,3.113
0.300,-0.975,-0.016,0.244,-2.014,2.136
0.295,-0.978,-0.012,-0.061,-1.160,1.404
0.289,-0.980,-0.008,0.061,-0.183,0.977
0.290,-0.981,-0.003,0.488,0.000,1.404

0.869,0.241,1.694,59.814,-71.594,-49.133
0.891,0.237,1.836,73.975,-96.313,-62.012
0.845,0.157,1.927,90.393,-118.469,-76.477
0.743,0.003,1.981,107.727,-131.592,-85.876
0.618,-0.106,2.060,122.864,-131.470,-84.839
0.510,-0.216,2.067,134.338,-116.638,-71.777
0.467,-0.229,2.056,144.165,-87.524,-49.011
0.465,-0.176,2.032,153.870,-51.270,-23.560
0.467,-0.085,1.990,162.537,-17.578,-3.662
0.494,0.024,1.926,173.462,5.798,8.606
0.513,0.156,1.884,183.594,17.578,12.695
0.535,0.238,1.886,190.979,20.020,8.728
0.543,0.297,1.955,194.458,14.832,1.099
0.503,0.318,2.042,195.557,4.395,-6.287
0.434,0.320,2.109,201.111,-2.869,-12.085
0.353,0.328,2.141,211.365,-0.854,-14.526
0.273,0.338,2.137,224.670,9.644,-11.963
0.201,0.364,2.090,236.328,25.574,-5.432
0.151,0.406,2.024,245.117,46.326,2.014
0.110,0.451,1.930,253.601,68.359,9.644
0.087,0.507,1.809,262.085,87.097,14.648
0.104,0.588,1.677,268.738,99.243,15.808
0.118,0.647,1.525,270.996,105.347,9.399
0.115,0.663,1.396,271.912,110.840,-3.601
0.093,0.632,1.278,271.545,116.272,-18.372
0.021,0.592,1.164,268.677,120.667,-29.846
-0.045,0.549,1.035,266.174,124.390,-33.203
-0.116,0.515,0.906,264.709,131.836,-29.724
-0.162,0.472,0.776,264.709,142.578,-21.362
-0.215,0.448,0.647,264.221,153.992,-10.315
-0.224,0.455,0.511,263.245,167.358,0.732
-0.187,0.492,0.400,258.301,184.448,8.545
-0.164,0.488,0.296,249.634,202.454,8.240
-0.167,0.438,0.166,243.286,210.937,1.709
-0.141,0.412,-0.017,240.295,206.299,-6.104
-0.142,0.361,-0.195,238.281,190.247,-17.578
-0.137,0.295,-0.394,237.427,165.771,-30.518
-0.127,0.239,-0.571,234.070,136.108,-40.649
-0.106,0.169,-0.710,229.004,103.882,-48.157
-0.090,0.100,-0.834,224.121,68.115,-54.565
-0.072,0.048,-0.941,216.187,37.537,-60.364
-0.090,-0.051,-1.022,203.430,18.738,-66.528
-0.140,-0.178,-1.109,186.279,10.437,-68.604
-0.161,-0.276,-1.183,167.908,12.207,-62.988
-0.184,-0.369,-1.272,149.170,17.395,-53.040
-0.182,-0.430,-1.355,134.338,23.193,-41.870
-0.135,-0.469,-1.420,119.080,25.574,-31.372
-0.064,-0.500,-1.445,102.051,23.254,-23.926
0.028,-0.506,-1.421,85.632,17.151,-18.799
0.141,-0.524,-1.364,69.275,5.920,-16.296
0.282,-0.512,-1.237,51.697,-10.681,-16.235
0.393,-0.530,-1.054,35.583,-33.630,-21.301
0.470,-0.571,-0.848,23.437,-60.303,-28.870
0.513,-0.627,-0.627,13.794,-85.571,-36.865
0.537,-0.681,-0.383,4.517,-103.394,-41.138
0.547,-0.709,-0.129,-1.343,-109.253,-42.542
0.540,-0.760,0.061,-1.526,-100.830,-43.030
0.522,-0.825,0.154,2.075,-78.491,-40.466
0.521,-0.867,0.172,4.150,-47.058,-32.593
0.526,-0.899,0.148,3.113,-14.954,-23.010
0.539,-0.907,0.088,1.343,10.681,-15.320
0.553,-0.915,0.008,-0.671,27.588,-10.925
0.545,-0.923,-0.055,-3.174,33.386,-10.864
0.520,-0.934,-0.100,-5.615,29.724,-13.367
0.483,-0.964,-0.120,-6.714,20.264,-16.235
0.462,-0.982,-0.120,-6.775,9.033,-17.578
0.429,-0.990,-0.089,-6.470,-1.160,-17.639
0.393,-1.009,-0.056,-4.211,-9.033,-16.846
0.383,-1.009,-0.022,-0.610,-13.000,-14.771
0.367,-1.019,0.015,2.380,-12.573,-11.230
0.360,-1.029,0.024,4.822,-6.470,-7.812
0.362,-1.024,0.010,4.700,3.113,-3.784
0.375,-1.006,-0.003,2.747,13.733,0.610
0.394,-0.990,-0.022,0.183,21.790,3.174
0.397,-0.972,-0.046,-1.770,24.719,2.747
0.403,-0.966,-0.067,-2.502,22.217,0.854
0.395,-0.971,-0.079,-2.625,15.320,-1.343
0.386,-0.971,-0.075,-2.563,7.202,-2.869
0.373,-0.976,-0.063,-2.991,1.709,-3.052
0.368,-0.977,-0.049,-3.052,0.305,-1.831
0.370,-0.977,-0.049,-2.930,2.380,0.488
0.387,-0.962,-0.047,-3.357,5.737,3.662
0.400,-0.953,-0.047,-3.601,8.850,5.981
0.420,-0.945,-0.041,-3.601,10.559,7.507
0.437,-0.935,-0.046,-2.930,9.705,7.874
0.449,-0.921,-0.051,-1.343,6.958,7.324
0.446,-0.919,-0.061,-0.244,2.869,5.310
0.439,-0.920,-0.075,0.061,0.000,2.930
0.423,-0.917,-0.086,-1.038,-0.916,0.610
0.403,-0.927,-0.094,-1.892,-0.122,-0.854
0.394,-0.927,-0.100,-3.235,2.686,-0.793
0.399,-0.926,-0.091,-4.639,5.981,0.488
0.408,-0.931,-0.078,-4.150,7.141,1.892
0.422,-0.933,-0.078,-2.808,5.737,2.747
0.437,-0.922,-0.069,-1.465,2.258,2.014
0.437,-0.927,-0.063,-0.366,-0.854,-1.404
0.425,-0.935,-0.051,0.488,-3.479,-3.540
0.408,-0.934,-0.040,2.258,-5.920,-4.089
0.399,-0.924,-0.038,5.127,-6.470,-4.089
0.387,-0.924,-0.043,7.629,-3.601,-3.906
0.375,-0.922,-0.056,8.423,1.160,-2.808
0.370,-0.922,-0.065,5.859,7.019,-0.366
0.371,-0.921,-0.067,3.174,10.681,2.075
0.377,-0.917,-0.072,2.258,11.414,4.150
0.380,-0.911,-0.088,2.075,10.132,5.371
0.388,-0.903,-0.091,1.587,7.019,5.127
0.390,-0.903,-0.077,0.977,2.747,4.150
0.398,-0.903,-0.060,1.770,-1.465,3.052
0.403,-0.904,-0.055,3.601,-4.944,1.404
0.402,-0.902,-0.061,4.639,-8.179,-0.366
0.400,-0.904,-0.059,3.845,-8.789,-1.709
0.401,-0.913,-0.050,2.075,-6.653,-2.075
0.402,-0.922,-0.040,0.305,-4.089,-1.221
0.410,-0.927,-0.043,0.122,-2.686,0.061
0.427,-0.924,-0.068,0.732,-2.258,0.977
0.440,-0.918,-0.082,0.000,-1.831,1.648
0.448,-0.919,-0.088,-0.916,-1.404,1.587
0.456,-0.916,-0.079,-1.709,-1.831,0.916
0.456,-0.917,-0.070,-1.648,-2.808,-0.488

0.708,0.070,2.010,73.792,-53.894,-51.514
0.716,0.031,2.209,97.839,-61.829,-51.941
0.737,0.039,2.371,125.488,-69.275,-50.598
0.732,0.074,2.469,152.649,-69.641,-51.147
0.660,0.044,2.516,175.720,-60.486,-55.908
0.576,-0.021,2.540,194.458,-44.312,-58.716
0.482,-0.050,2.566,211.243,-29.785,-53.833
0.393,-0.051,2.536,229.736,-17.822,-44.006
0.373,-0.046,2.465,249.451,-7.080,-32.410
0.353,0.010,2.344,268.188,5.615,-18.616
0.349,0.077,2.216,283.386,21.790,-6.531
0.369,0.169,2.083,295.471,36.865,4.089
0.427,0.283,1.971,303.711,41.443,11.902
0.480,0.401,1.869,308.289,37.537,11.230
0.492,0.464,1.751,308.960,38.818,0.854
0.440,0.443,1.645,307.495,46.631,-12.512
0.348,0.422,1.553,305.725,52.002,-20.935
0.265,0.431,1.414,306.030,56.824,-22.034
0.235,0.461,1.258,304.810,65.735,-19.958
0.165,0.455,1.118,298.157,76.416,-17.578
0.109,0.443,0.977,289.795,87.830,-13.489
0.083,0.456,0.840,279.541,98.572,-7.202
0.075,0.478,0.694,267.273,111.023,-3.418
0.077,0.483,0.563,253.357,126.343,-3.662
0.083,0.455,0.475,239.380,139.160,-7.751
0.072,0.404,0.422,226.440,140.503,-13.794
0.031,0.372,0.354,219.666,130.493,-19.104
0.016,0.326,0.241,221.619,119.385,-24.658
0.016,0.280,0.121,226.257,110.474,-29.297
0.021,0.244,-0.003,227.783,104.004,-31.311
0.021,0.184,-0.108,224.182,102.539,-33.386
0.025,0.116,-0.182,216.248,102.661,-33.752
0.034,0.069,-0.255,205.505,100.281,-31.189
0.045,0.054,-0.336,195.496,98.572,-27.527
0.080,0.029,-0.404,186.707,98.145,-26.550
0.101,-0.020,-0.454,176.025,95.337,-28.625
0.115,-0.073,-0.515,167.358,87.036,-31.372
0.156,-0.130,-0.557,161.255,70.923,-35.583
0.172,-0.187,-0.587,153.320,52.551,-41.443
0.164,-0.284,-0.615,148.071,33.875,-47.729
0.181,-0.366,-0.636,142.578,17.517,-49.744
0.188,-0.428,-0.624,131.836,6.348,-48.706
0.175,-0.489,-0.591,119.507,0.916,-45.837
0.158,-0.539,-0.575,110.229,-0.671,-40.588
0.164,-0.580,-0.570,103.638,-3.418,-33.936
0.170,-0.603,-0.570,99.487,-10.559,-26.917
0.203,-0.633,-0.563,100.342,-22.949,-21.057
0.279,-0.611,-0.557,104.675,-40.955,-18.066
0.358,-0.618,-0.575,109.619,-60.791,-21.729
0.403,-0.647,-0.582,110.718,-79.346,-30.762
0.424,-0.682,-0.541,105.103,-89.722,-39.185
0.402,-0.740,-0.468,92.957,-88.562,-44.006
0.373,-0.778,-0.391,79.102,-75.867,-41.016
0.358,-0.796,-0.329,65.796,-54.443,-30.212
0.342,-0.808,-0.289,55.969,-30.273,-15.991
0.363,-0.816,-0.282,50.476,-8.667,-2.075
0.404,-0.797,-0.302,47.852,4.272,9.766
0.481,-0.765,-0.334,47.424,8.484,16.174
0.553,-0.733,-0.375,45.105,6.470,13.916
0.591,-0.721,-0.415,39.307,4.395,3.357
0.552,-0.758,-0.424,30.518,3.662,-11.963
0.482,-0.802,-0.423,21.179,0.977,-25.635
0.402,-0.823,-0.401,12.695,-2.380,-33.325
0.335,-0.856,-0.367,6.287,-3.784,-35.828
0.294,-0.883,-0.320,1.282,-3.540,-32.227
0.272,-0.900,-0.262,-3.723,-0.610,-24.902
0.261,-0.908,-0.216,-7.446,5.798,-16.479
0.257,-0.921,-0.191,-8.362,13.672,-9.277
0.276,-0.931,-0.197,-7.446,19.409,-3.845
0.303,-0.933,-0.208,-7.263,22.156,-0.427
0.308,-0.940,-0.221,-7.507,20.935,0.061
0.315,-0.953,-0.234,-7.141,16.724,-1.343
0.324,-0.960,-0.236,-7.324,10.559,-2.930
0.313,-0.958,-0.243,-7.690,4.150,-3.967
0.308,-0.961,-0.245,-9.399,0.671,-4.456
0.307,-0.967,-0.228,-12.756,-0.122,-4.517
0.307,-0.974,-0.199,-15.747,-0.977,-3.906
0.315,-0.973,-0.160,-17.456,-2.014,-2.441
0.328,-0.971,-0.128,-15.381,-2.441,-1.282
0.335,-0.978,-0.119,-11.169,-2.014,-1.099
0.331,-0.981,-0.125,-7.751,-0.732,-0.732
0.333,-0.984,-0.129,-5.310,0.488,0.488
0.334,-0.979,-0.131,-3.723,0.793,2.319
0.339,-0.969,-0.136,-2.502,0.610,3.662
0.341,-0.960,-0.147,-1.160,-0.061,4.211
0.345,-0.949,-0.166,-0.183,-0.977,4.700
0.365,-0.930,-0.187,0.061,-1.343,4.272
0.389,-0.921,-0.208,-1.221,-0.671,2.197
0.390,-0.938,-0.207,-4.028,-0.549,0.061
0.386,-0.944,-0.203,-7.568,-2.136,-0.305
0.385,-0.939,-0.170,-11.108,-5.005,-1.038
0.374,-0.939,-0.128,-10.620,-9.094,-1.770
0.358,-0.942,-0.107,-5.737,-10.681,-2.319
0.354,-0.939,-0.100,0.488,-8.118,-0.854
0.349,-0.938,-0.110,7.385,-3.052,1.892
0.356,-0.940,-0.130,12.085,2.380,5.371
0.371,-0.942,-0.146,12.939,5.737,7.996
0.389,-0.936,-0.165,12.634,6.653,9.460
0.396,-0.930,-0.185,11.536,6.592,9.705
0.405,-0.918,-0.196,8.362,6.775,8.301
0.407,-0.915,-0.187,4.333,6.714,5.615
0.396,-0.916,-0.188,1.892,5.249,2.991
0.388,-0.917,-0.185,0.732,2.625,1.038
0.379,-0.914,-0.179,-0.183,0.122,-0.244
0.377,-0.920,-0.166,-1.404,-1.160,-0.732
0.379,-0.927,-0.151,-2.075,-1.648,-0.488
0.379,-0.931,-0.141,-2.075,-1.282,0.183
0.383,-0.937,-0.136,-1.465,-0.305,1.038
0.392,-0.932,-0.137,-0.366,0.427,2.136
0.393,-0.928,-0.145,0.732,1.465,2.441
0.392,-0.929,-0.155,0.854,2.319,2.502
0.388,-0.928,-0.163,0.549,2.991,2.686
0.384,-0.927,-0.172,-0.305,3.601,3.174
0.385,-0.926,-0.180,-1.343,4.089,3.113
0.382,-0.920,-0.185,-2.808,3.662,2.747
0.376,-0.914,-0.187,-4.028,3.174,2.258
0.374,-0.910,-0.183,-5.371,3.540,1.648
0.369,-0.904,-0.171,-6.531,4.028,1.038
0.366,-0.907,-0.166,-6.531,3.784,0.671

0.760,0.078,1.831,81.848,-59.631,-55.176
0.756,0.074,1.926,96.680,-64.514,-58.167
0.740,0.077,2.012,111.694,-63.232,-61.279
0.723,0.054,2.089,127.441,-59.021,-62.805
0.707,0.059,2.149,143.616,-54.626,-61.523
0.685,0.072,2.207,160.645,-49.927,-58.960
0.675,0.043,2.298,176.880,-45.105,-55.054
0.639,0.027,2.453,191.711,-33.630,-47.424
0.607,0.032,2.541,210.144,-9.216,-34.485
0.596,0.062,2.625,228.271,25.879,-17.822
0.534,0.110,2.638,245.056,58.289,-1.892
0.531,0.218,2.519,265.076,80.383,11.841
0.580,0.384,2.362,280.762,92.346,17.456
0.532,0.451,2.234,292.236,91.370,10.132
0.493,0.497,2.055,304.932,83.496,-3.052
0.451,0.550,1.863,313.232,77.637,-15.564
0.365,0.546,1.688,316.650,73.364,-27.649
0.255,0.524,1.497,319.702,70.923,-34.119
0.185,0.528,1.294,319.397,73.547,-32.471
0.156,0.573,1.105,311.523,83.862,-26.855
0.115,0.595,0.938,300.476,98.816,-22.278
0.119,0.609,0.802,288.208,112.000,-19.043
0.122,0.632,0.674,277.466,114.929,-17.883
0.153,0.648,0.553,271.973,108.215,-21.545
0.165,0.630,0.451,268.738,97.351,-30.151
0.140,0.573,0.346,266.602,85.449,-39.978
0.090,0.507,0.220,266.357,78.064,-46.570
0.073,0.460,0.093,264.343,75.745,-49.133
0.036,0.405,-0.016,256.287,78.247,-49.377
0.003,0.333,-0.131,247.070,81.665,-47.363
0.008,0.281,-0.224,237.244,82.764,-43.579
0.025,0.229,-0.300,224.182,82.642,-40.344
0.030,0.174,-0.391,213.806,82.214,-38.757
0.093,0.143,-0.504,207.581,82.825,-39.246
0.135,0.106,-0.604,197.021,85.144,-44.312
0.125,0.031,-0.688,182.312,87.402,-52.368
0.104,-0.051,-0.750,167.114,88.928,-58.838
0.070,-0.129,-0.801,152.893,87.097,-62.378
0.039,-0.231,-0.823,141.907,80.505,-64.148
0.014,-0.326,-0.851,134.460,69.519,-63.171
0.004,-0.404,-0.902,130.005,53.833,-61.035
0.018,-0.446,-0.928,124.268,34.119,-58.533
0.038,-0.499,-0.917,113.770,16.785,-56.213
0.033,-0.572,-0.872,99.976,5.615,-53.040
0.058,-0.626,-0.791,85.022,-0.427,-45.837
0.102,-0.669,-0.675,69.519,-3.357,-36.621
0.137,-0.700,-0.565,59.326,-4.211,-28.381
0.198,-0.707,-0.505,53.833,-2.869,-22.522
0.238,-0.714,-0.479,48.584,1.038,-20.020
0.249,-0.737,-0.460,39.978,7.996,-19.043
0.258,-0.759,-0.428,29.785,14.160,-17.822
0.265,-0.769,-0.389,20.264,15.503,-15.686
0.280,-0.769,-0.355,13.550,12.878,-14.771
0.311,-0.775,-0.319,10.193,8.362,-15.259
0.319,-0.802,-0.290,8.606,0.916,-17.273
0.307,-0.834,-0.260,7.507,-7.019,-19.043
0.296,-0.855,-0.234,7.446,-14.587,-19.043
0.301,-0.880,-0.191,6.714,-18.616,-17.395
0.293,-0.904,-0.136,5.920,-17.700,-15.198
0.297,-0.922,-0.101,6.714,-11.108,-11.292
0.311,-0.920,-0.105,8.667,-1.465,-7.141
0.327,-0.923,-0.139,9.033,10.071,-4.761
0.333,-0.928,-0.175,7.935,19.714,-4.272
0.337,-0.934,-0.210,6.958,22.766,-4.211
0.335,-0.936,-0.248,6.348,19.104,-4.150
0.330,-0.946,-0.284,5.432,11.414,-4.639
0.320,-0.962,-0.283,1.465,3.662,-4.700
0.294,-0.975,-0.218,-4.700,-0.977,-2.991
0.278,-1.004,-0.147,-8.057,0.061,1.831
0.279,-1.016,-0.098,-8.240,5.005,9.827
0.308,-1.007,-0.076,-6.775,10.864,19.043
0.377,-0.957,-0.056,-5.371,15.991,25.757
0.445,-0.915,-0.059,-2.686,19.897,25.085
0.492,-0.891,-0.100,1.282,20.508,17.212
0.504,-0.892,-0.159,4.150,16.907,6.897
0.481,-0.921,-0.203,3.845,9.766,-2.930
0.450,-0.938,-0.230,1.404,0.916,-8.484
0.425,-0.938,-0.236,-1.953,-6.592,-10.986
0.397,-0.937,-0.226,-6.042,-10.864,-11.169
0.362,-0.953,-0.195,-10.254,-10.010,-9.644
0.335,-0.962,-0.154,-12.390,-5.005,-5.920
0.319,-0.974,-0.126,-11.536,1.160,-0.244
0.324,-0.966,-0.117,-9.277,7.629,7.385
0.356,-0.949,-0.106,-6.836,11.719,14.282
0.391,-0.920,-0.095,-4.517,12.146,18.005
0.414,-0.907,-0.103,-1.099,9.888,17.517
0.433,-0.893,-0.117,2.747,5.554,13.977
0.430,-0.898,-0.128,5.432,0.427,9.216
0.407,-0.920,-0.135,5.737,-3.357,5.493
0.381,-0.925,-0.141,3.174,-5.371,3.662
0.358,-0.944,-0.121,-0.671,-5.859,1.831
0.337,-0.942,-0.107,-1.526,-5.432,3.601
0.325,-0.936,-0.104,0.183,-2.747,6.775
0.325,-0.931,-0.125,3.357,2.319,10.193
0.332,-0.932,-0.143,7.019,8.240,13.611
0.347,-0.929,-0.158,10.315,11.414,16.846
0.384,-0.911,-0.165,12.390,10.803,18.738
0.411,-0.897,-0.180,12.756,8.057,17.700
0.423,-0.899,-0.196,12.024,4.700,13.428
0.422,-0.911,-0.219,8.850,1.526,9.705
0.421,-0.911,-0.221,2.808,-1.038,7.507
0.419,-0.903,-0.197,-3.601,-2.380,6.714
0.413,-0.907,-0.162,-7.263,-2.747,6.836
0.406,-0.908,-0.121,-7.874,-2.625,8.057
0.398,-0.909,-0.098,-5.127,-1.282,9.644
0.409,-0.907,-0.099,-1.831,2.380,11.597
0.421,-0.905,-0.106,-0.061,5.981,13.245
0.434,-0.903,-0.115,1.587,6.653,13.428
0.451,-0.892,-0.121,1.953,5.737,12.695
0.457,-0.891,-0.131,0.732,4.944,11.108
0.450,-0.889,-0.152,-1.953,4.333,8.972
0.444,-0.889,-0.163,-6.653,4.761,7.202
0.434,-0.889,-0.161,-11.230,4.822,5.920
0.413,-0.889,-0.172,-13.611,4.211,5.249
0.405,-0.884,-0.180,-14.465,3.601,5.127
0.394,-0.886,-0.187,-14.771,2.502,4.883
0.388,-0.886,-0.186,-14.526,0.793,4.211
0.392,-0.878,-0.178,-14.648,-1.221,3.662
0.398,-0.877,-0.172,-14.526,-3.174,2.747

0.656,0.196,1.719,154.907,-41.626,-63.965
0.582,0.173,1.799,160.828,-42.908,-67.932
0.513,0.137,1.844,168.457,-36.682,-68.237
0.470,0.130,1.857,176.453,-25.024,-62.744
0.466,0.161,1.836,184.509,-10.864,-54.565
0.466,0.200,1.829,192.139,-1.587,-49.194
0.443,0.241,1.781,204.224,0.732,-49.255
0.421,0.257,1.703,216.736,-1.099,-51.819
0.409,0.273,1.646,224.792,-2.075,-53.162
0.413,0.287,1.644,224.487,2.502,-52.429
0.394,0.293,1.672,218.384,13.916,-51.636
0.385,0.315,1.713,211.182,30.273,-49.255
0.390,0.349,1.781,200.562,50.110,-45.349
0.365,0.380,1.822,190.186,74.219,-42.603
0.345,0.383,1.795,186.951,100.586,-41.504
0.321,0.392,1.734,193.481,118.286,-39.490
0.300,0.415,1.611,214.539,119.263,-39.063
0.328,0.495,1.427,245.483,103.943,-41.626
0.315,0.533,1.194,271.606,78.918,-47.974
0.265,0.522,0.914,292.542,60.669,-56.885
0.214,0.493,0.634,305.664,54.871,-64.270
0.168,0.502,0.388,307.983,58.838,-68.298
0.098,0.464,0.182,301.025,69.336,-73.425
0.041,0.398,0.036,289.856,78.064,-77.209
0.014,0.355,-0.005,274.414,76.355,-75.989
-0.007,0.332,-0.007,260.254,63.843,-71.289
-0.031,0.256,-0.023,254.578,52.002,-67.627
-0.047,0.187,-0.078,254.333,45.837,-61.584
-0.033,0.155,-0.187,253.967,47.363,-52.734
-0.045,0.119,-0.318,250.427,56.458,-46.997
-0.026,0.088,-0.433,242.859,66.956,-44.312
-0.031,0.050,-0.545,234.131,70.251,-44.861
-0.036,0.015,-0.691,228.943,62.988,-49.988
-0.022,-0.017,-0.824,221.008,51.819,-57.556
-0.049,-0.105,-0.941,208.008,42.542,-66.833
-0.123,-0.198,-1.042,193.787,41.077,-72.571
-0.174,-0.289,-1.132,176.880,49.194,-71.838
-0.206,-0.391,-1.211,156.433,59.875,-65.735
-0.204,-0.462,-1.260,134.705,64.819,-56.274
-0.186,-0.514,-1.281,118.774,61.462,-46.936
-0.145,-0.556,-1.281,109.009,44.128,-38.940
-0.098,-0.601,-1.258,100.403,19.165,-32.898
-0.048,-0.652,-1.160,87.524,-3.296,-27.954
-0.010,-0.706,-1.009,68.909,-17.090,-22.644
0.069,-0.719,-0.837,48.340,-23.682,-16.724
0.141,-0.726,-0.664,30.579,-28.076,-12.878
0.204,-0.746,-0.521,17.700,-31.250,-13.245
0.230,-0.779,-0.415,8.850,-34.424,-16.235
0.242,-0.807,-0.326,1.831,-35.095,-19.226
0.242,-0.825,-0.254,-5.310,-31.311,-21.545
0.231,-0.849,-0.201,-12.573,-22.461,-22.705
0.244,-0.829,-0.174,-20.020,-10.498,-23.315
0.239,-0.838,-0.171,-27.527,2.441,-25.818
0.248,-0.894,-0.177,-33.386,13.855,-29.724
0.264,-0.951,-0.183,-36.926,18.250,-32.715
0.272,-1.005,-0.164,-39.063,17.273,-35.767
0.288,-1.055,-0.127,-39.612,12.451,-38.269
0.299,-1.096,-0.067,-37.842,5.249,-39.185
0.279,-1.130,0.003,-33.752,-3.052,-38.025
0.244,-1.161,0.060,-28.381,-6.653,-35.889
0.227,-1.161,0.109,-22.949,-4.456,-30.518
0.205,-1.154,0.143,-17.212,0.610,-24.597
0.181,-1.150,0.146,-11.658,7.996,-19.470
0.164,-1.129,0.133,-6.531,14.587,-13.489
0.141,-1.112,0.094,-1.709,18.921,-7.446
0.148,-1.087,0.057,1.831,22.034,-1.709
0.176,-1.048,0.038,3.906,23.804,4.150
0.194,-1.022,0.019,6.348,20.996,6.226
0.219,-1.011,-0.013,8.911,15.747,4.822
0.214,-0.997,-0.029,9.033,10.132,3.540
0.190,-0.986,-0.032,7.935,5.554,1.770
0.178,-0.967,-0.037,6.775,3.052,1.038
0.155,-0.970,-0.032,6.409,1.343,0.793
0.131,-0.981,-0.035,6.775,0.366,1.770
0.129,-0.985,-0.042,7.019,0.000,4.456
0.130,-0.982,-0.052,6.592,0.183,7.874
0.138,-0.992,-0.060,5.981,1.038,10.376
0.150,-0.986,-0.058,6.104,1.221,12.817
0.155,-0.985,-0.077,8.606,1.343,14.038
0.162,-0.983,-0.096,9.521,-0.183,14.038
0.180,-0.974,-0.102,8.362,-1.953,13.855
0.188,-0.965,-0.096,5.676,-2.563,12.695
0.191,-0.969,-0.081,4.028,-2.930,10.010
0.189,-0.970,-0.071,4.578,-3.296,8.057
0.182,-0.973,-0.069,5.615,-2.563,6.836
0.184,-0.981,-0.066,6.165,1.099,7.385
0.184,-0.987,-0.070,6.165,6.348,8.728
0.185,-1.011,-0.100,5.188,10.193,9.094
0.193,-1.020,-0.124,3.113,11.414,9.216
0.197,-1.014,-0.134,2.563,8.362,9.399
0.215,-1.001,-0.152,4.944,4.211,8.118
0.225,-0.991,-0.155,6.775,1.587,5.920
0.234,-0.995,-0.135,7.812,-1.099,3.296
0.233,-0.998,-0.112,7.568,-5.005,1.526
0.240,-0.993,-0.073,6.104,-11.353,0.122
0.236,-0.999,-0.050,5.981,-13.672,-0.671
0.242,-1.001,-0.024,5.981,-12.024,-0.793
0.238,-1.004,-0.009,6.836,-8.545,0.244
0.249,-1.001,-0.015,9.094,-4.944,1.404
0.270,-1.001,-0.036,10.071,-2.319,2.441
0.275,-0.997,-0.057,10.315,-0.854,2.869
0.273,-0.994,-0.078,10.986,-0.977,2.808
0.272,-0.986,-0.106,10.986,-1.160,2.014
0.265,-0.975,-0.122,9.949,-0.916,1.343
0.257,-0.966,-0.131,7.507,0.183,0.793
0.243,-0.969,-0.136,5.493,1.160,-0.732
0.233,-0.969,-0.130,4.700,1.587,-1.404
0.223,-0.961,-0.123,4.639,2.197,-0.244
0.216,-0.959,-0.103,4.150,1.953,0.000
0.207,-0.963,-0.087,4.761,1.526,-0.244
0.205,-0.976,-0.083,5.615,0.916,-0.122
0.203,-0.977,-0.081,6.348,-0.427,0.977
0.204,-0.977,-0.086,6.531,-0.854,2.258
0.204,-0.981,-0.093,6.348,-0.610,2.625
0.198,-0.991,-0.102,5.981,-0.427,2.930
0.197,-0.990,-0.110,5.005,0.183,3.479
0.198,-0.991,-0.111,3.113,1.587,4.028
0.199,-0.989,-0.110,1.282,2.930,4.761
0.200,-0.987,-0.112,-0.244,4.822,5.127

0.935,0.176,1.714,60.791,-64.087,-63.904
0.960,0.143,1.937,72.998,-79.773,-75.562
0.927,0.086,2.138,90.332,-91.064,-85.327
0.870,0.030,2.273,113.708,-94.727,-88.867
0.813,-0.012,2.362,138.184,-88.013,-85.510
0.766,-0.032,2.398,161.560,-71.411,-77.820
0.753,-0.018,2.404,183.350,-52.307,-67.383
0.754,0.040,2.414,202.332,-37.720,-57.861
0.751,0.100,2.442,218.933,-28.259,-52.490
0.711,0.146,2.485,235.107,-25.391,-50.598
0.655,0.190,2.547,252.808,-26.855,-48.523
0.619,0.226,2.580,270.630,-29.358,-43.335
0.639,0.264,2.635,290.283,-33.813,-34.607
0.681,0.354,2.748,312.317,-41.626,-23.865
0.731,0.444,2.828,336.975,-43.640,-19.592
0.683,0.521,2.864,360.840,-32.898,-25.330
0.501,0.503,2.738,388.062,-16.479,-34.668
0.335,0.527,2.455,414.307,4.944,-33.447
0.182,0.630,2.107,433.838,31.128,-20.264
0.055,0.723,1.712,440.002,61.401,-6.775
-0.027,0.832,1.339,433.838,89.844,5.188
-0.062,0.943,0.977,421.509,108.643,14.587
-0.074,1.022,0.628,407.104,119.019,17.334
-0.066,1.080,0.305,387.207,121.765,12.573
-0.128,1.011,0.092,361.084,117.615,-0.732
-0.175,0.923,-0.021,334.229,99.060,-10.986
-0.177,0.857,-0.073,309.143,72.083,-15.991
-0.126,0.833,-0.082,286.377,51.758,-20.020
-0.109,0.774,-0.044,267.151,41.260,-26.489
-0.116,0.677,-0.086,260.620,35.461,-34.485
-0.091,0.582,-0.232,263.550,30.640,-38.330
-0.035,0.545,-0.396,263.489,28.076,-37.354
-0.014,0.485,-0.504,256.470,32.043,-36.377
0.016,0.361,-0.598,248.413,43.640,-36.926
0.050,0.263,-0.747,238.281,56.702,-33.997
0.065,0.213,-0.910,221.985,73.181,-29.907
0.037,0.113,-0.983,195.618,96.008,-28.503
0.032,0.009,-1.022,166.748,117.737,-24.963
0.047,-0.070,-1.068,144.836,130.737,-19.714
0.036,-0.145,-1.119,133.789,121.887,-18.860
0.040,-0.202,-1.193,132.080,95.459,-21.729
0.072,-0.287,-1.237,132.751,64.453,-25.879
0.058,-0.399,-1.220,127.502,34.424,-29.053
0.048,-0.487,-1.146,116.272,9.888,-27.344
0.101,-0.521,-1.030,101.379,-6.714,-21.423
0.171,-0.524,-0.908,82.458,-13.062,-17.517
0.214,-0.572,-0.771,60.242,-7.568,-20.081
0.229,-0.654,-0.626,38.696,-0.122,-25.818
0.241,-0.736,-0.473,22.705,2.686,-30.701
0.265,-0.810,-0.321,14.893,-3.052,-33.997
0.267,-0.866,-0.202,13.428,-12.268,-36.316
0.271,-0.912,-0.142,17.700,-19.775,-37.720
0.270,-0.958,-0.129,26.428,-23.743,-36.926
0.251,-0.980,-0.154,32.166,-23.743,-33.264
0.233,-0.997,-0.184,33.264,-18.372,-27.283
0.239,-0.969,-0.230,31.982,-10.071,-19.226
0.241,-0.954,-0.288,29.724,-1.282,-11.414
0.244,-0.927,-0.338,26.794,5.859,-4.700
0.282,-0.881,-0.368,24.475,8.179,0.854
0.311,-0.828,-0.398,24.719,5.615,2.930
0.322,-0.831,-0.434,26.733,2.930,-0.916
0.327,-0.858,-0.488,28.381,-0.366,-5.127
0.320,-0.864,-0.510,26.367,-2.441,-8.240
0.293,-0.886,-0.505,18.982,0.854,-10.803
0.258,-0.912,-0.480,11.169,6.287,-11.353
0.233,-0.917,-0.448,6.104,8.545,-7.935
0.228,-0.921,-0.426,3.418,9.094,-4.272
0.226,-0.906,-0.400,1.343,7.446,-0.671
0.216,-0.907,-0.381,0.488,4.639,1.587
0.205,-0.902,-0.356,0.610,1.343,3.479
0.196,-0.904,-0.344,0.916,-1.709,6.348
0.203,-0.893,-0.351,2.197,-3.418,10.193
0.240,-0.874,-0.361,1.953,-3.357,13.550
0.283,-0.879,-0.393,-1.709,-0.366,13.916
0.313,-0.889,-0.386,-8.545,2.563,12.146
0.305,-0.908,-0.362,-13.733,1.953,10.071
0.300,-0.911,-0.357,-17.029,-0.305,8.972
0.282,-0.917,-0.358,-20.081,-1.587,8.057
0.270,-0.902,-0.342,-21.484,-1.404,7.996
0.255,-0.903,-0.315,-20.935,-2.075,9.155
0.255,-0.902,-0.298,-18.250,-4.150,10.620
0.272,-0.903,-0.286,-14.648,-5.920,12.207
0.292,-0.922,-0.289,-10.376,-7.324,13.184
0.326,-0.905,-0.299,-8.545,-7.324,14.343
0.352,-0.884,-0.310,-9.460,-5.066,13.245
0.361,-0.893,-0.320,-11.963,-2.686,8.423
0.356,-0.908,-0.321,-14.587,-1.892,4.395
0.353,-0.896,-0.319,-16.907,-3.174,2.686
0.354,-0.897,-0.315,-18.127,-4.700,1.526
0.350,-0.902,-0.303,-18.250,-5.554,1.221
0.330,-0.906,-0.291,-18.250,-5.249,1.831
0.325,-0.920,-0.307,-19.104,-4.272,1.221
0.326,-0.927,-0.310,-20.691,-4.700,0.366
0.323,-0.918,-0.305,-20.630,-5.737,0.427
0.316,-0.908,-0.285,-18.555,-5.371,0.732
0.306,-0.906,-0.277,-13.489,-3.235,0.183
0.302,-0.904,-0.302,-8.789,0.427,0.122
0.294,-0.911,-0.303,-8.911,2.258,0.488
0.284,-0.911,-0.311,-12.024,2.258,1.892
0.279,-0.905,-0.312,-15.381,1.953,3.540
0.281,-0.906,-0.322,-16.785,0.488,4.944
0.309,-0.900,-0.319,-18.982,-1.221,5.493
0.313,-0.908,-0.306,-21.790,-2.686,4.761
0.307,-0.923,-0.298,-23.315,-3.723,3.113
0.287,-0.929,-0.299,-24.048,-4.211,1.892
0.255,-0.944,-0.298,-26.001,-3.235,0.854
0.233,-0.939,-0.300,-29.297,-0.305,1.648
0.216,-0.936,-0.297,-32.715,3.601,3.784
0.229,-0.935,-0.289,-35.767,6.775,7.202
0.271,-0.926,-0.255,-39.368,6.653,10.620
0.327,-0.906,-0.193,-42.236,2.014,12.451
0.386,-0.884,-0.123,-43.030,-5.859,10.620
0.417,-0.896,-0.067,-40.527,-14.404,4.639
0.414,-0.924,-0.037,-35.095,-20.447,-2.258
0.400,-0.946,-0.038,-29.968,-22.095,-5.798
0.384,-0.957,-0.044,-28.381,-18.799,-7.019
0.345,-0.966,-0.053,-27.649,-13.245,-6.531
0.315,-0.979,-0.064,-26.855,-6.897,-4.517
0.311,-0.974,-0.068,-27.283,-1.099,-1.465

0.863,-0.009,1.952,78.125,-88.989,-59.509
0.837,-0.039,2.083,101.318,-89.722,-62.927
0.800,-0.024,2.161,126.099,-82.397,-61.523
0.787,-0.039,2.153,144.531,-65.491,-56.702
0.743,-0.046,2.119,159.546,-41.870,-51.941
0.680,-0.056,2.043,171.448,-17.578,-46.570
0.642,-0.026,1.926,182.251,1.648,-39.673
0.638,0.035,1.800,191.528,15.991,-33.447
0.633,0.097,1.714,197.083,22.217,-31.311
0.613,0.144,1.674,200.500,16.174,-34.607
0.586,0.170,1.661,205.627,4.883,-40.833
0.551,0.179,1.667,212.219,-4.883,-47.058
0.501,0.184,1.672,219.910,-11.475,-50.354
0.460,0.192,1.645,228.027,-10.132,-50.781
0.447,0.209,1.590,234.192,-1.160,-49.011
0.434,0.241,1.583,234.802,9.155,-47.485
0.410,0.246,1.588,235.413,13.306,-49.194
0.378,0.248,1.591,239.868,7.996,-53.284
0.359,0.265,1.585,244.934,-0.244,-57.556
0.297,0.233,1.569,247.070,-0.610,-62.744
0.207,0.180,1.542,247.437,6.165,-64.270
0.112,0.131,1.463,248.840,18.433,-58.777
0.078,0.129,1.317,252.625,35.278,-47.546
0.099,0.187,1.135,252.991,56.274,-36.133
0.100,0.208,0.967,244.873,79.468,-31.250
0.098,0.191,0.868,233.521,94.055,-31.128
0.125,0.223,0.795,227.112,91.064,-33.447
0.161,0.235,0.685,225.952,81.238,-42.236
0.179,0.197,0.598,223.267,72.021,-56.152
0.168,0.148,0.575,217.773,61.462,-68.359
0.149,0.071,0.570,215.698,47.363,-76.294
0.145,0.029,0.587,217.407,32.898,-76.843
0.170,0.017,0.591,222.168,23.682,-72.205
0.157,-0.027,0.574,225.952,25.635,-66.467
0.170,-0.036,0.545,227.905,36.926,-57.251
0.167,-0.022,0.495,227.905,50.171,-47.546
0.178,-0.016,0.384,228.516,65.002,-40.833
0.189,-0.001,0.244,227.295,78.430,-38.269
0.195,-0.022,0.081,223.450,85.144,-40.344
0.222,-0.037,-0.016,214.966,82.825,-46.326
0.210,-0.104,-0.046,204.773,68.359,-54.932
0.180,-0.161,-0.094,201.294,45.349,-62.073
0.181,-0.191,-0.179,202.820,25.330,-65.918
0.170,-0.253,-0.222,200.684,13.794,-67.932
0.121,-0.308,-0.228,195.557,6.104,-65.247
0.105,-0.314,-0.257,193.237,3.845,-58.411
0.111,-0.322,-0.289,189.453,11.902,-51.880
0.058,-0.370,-0.342,184.387,25.635,-46.997
0.015,-0.404,-0.460,182.373,39.490,-40.710
0.011,-0.386,-0.619,179.321,50.476,-33.630
0.012,-0.384,-0.774,170.044,60.120,-29.480
-0.023,-0.425,-0.894,155.823,66.467,-28.809
-0.075,-0.466,-0.980,142.761,63.965,-27.405
-0.116,-0.487,-1.029,132.568,53.894,-23.621
-0.140,-0.501,-1.038,125.977,40.771,-18.433
-0.158,-0.532,-1.054,125.610,22.156,-12.878
-0.104,-0.475,-1.093,129.395,-1.770,-6.714
0.000,-0.395,-1.156,129.150,-21.851,-4.761
0.074,-0.407,-1.230,118.469,-28.259,-10.742
0.095,-0.501,-1.229,96.497,-25.696,-20.264
0.099,-0.582,-1.119,68.604,-23.499,-23.926
0.075,-0.655,-0.968,42.419,-23.010,-22.095
0.077,-0.711,-0.812,25.269,-23.254,-17.395
0.103,-0.774,-0.685,15.198,-22.217,-11.292
0.128,-0.826,-0.568,7.690,-19.043,-5.432
0.128,-0.877,-0.459,2.686,-16.357,-0.488
0.151,-0.910,-0.364,1.648,-15.869,4.028
0.184,-0.922,-0.323,2.869,-17.212,7.263
0.221,-0.903,-0.307,1.282,-14.709,7.629
0.220,-0.911,-0.322,-4.883,-4.578,4.944
0.188,-0.951,-0.327,-12.817,8.118,0.977
0.167,-0.948,-0.355,-17.822,16.479,0.732
0.180,-0.929,-0.398,-20.691,20.020,1.465
0.189,-0.921,-0.432,-24.231,18.311,-0.977
0.177,-0.939,-0.453,-25.757,11.414,-4.761
0.171,-0.960,-0.435,-24.536,0.916,-7.751
0.161,-0.974,-0.400,-23.254,-8.423,-8.911
0.146,-0.994,-0.367,-20.813,-14.709,-7.751
0.144,-1.001,-0.326,-18.860,-16.663,-4.395
0.156,-1.000,-0.292,-17.700,-15.076,0.977
0.180,-0.992,-0.279,-17.273,-10.986,6.775
0.210,-0.972,-0.287,-18.494,-6.165,11.230
0.244,-0.948,-0.316,-21.179,-1.709,13.611
0.259,-0.956,-0.338,-24.841,2.441,13.306
0.284,-0.951,-0.338,-28.809,2.075,12.207
0.281,-0.941,-0.334,-30.701,-3.113,9.338
0.251,-0.966,-0.303,-30.151,-9.583,5.127
0.222,-0.987,-0.235,-29.602,-14.404,3.296
0.210,-0.990,-0.182,-27.466,-15.503,4.456
0.200,-0.992,-0.148,-23.499,-13.916,7.385
0.191,-0.982,-0.122,-19.897,-8.240,11.658
0.198,-0.972,-0.113,-15.808,-1.282,15.625
0.237,-0.979,-0.115,-11.536,5.798,17.517
0.279,-0.953,-0.149,-7.812,10.071,20.691
0.306,-0.946,-0.182,-6.042,11.353,20.874
0.313,-0.949,-0.186,-4.089,8.606,16.052
0.294,-0.954,-0.190,2.075,3.845,11.658
0.283,-0.963,-0.203,15.137,-0.549,8.362
0.258,-0.966,-0.189,30.518,-2.563,7.385
0.234,-0.980,-0.191,43.091,-1.465,10.437
0.228,-0.991,-0.190,50.537,2.075,14.160
0.232,-1.000,-0.194,53.406,5.310,18.188
0.267,-0.979,-0.233,52.673,8.789,22.156
0.318,-0.935,-0.290,45.654,14.832,22.888
0.359,-0.923,-0.326,33.203,22.644,17.944
0.356,-0.936,-0.333,22.888,25.330,10.437
0.340,-0.946,-0.361,15.991,20.691,3.052
0.322,-0.947,-0.391,9.460,11.780,-2.747
0.305,-0.950,-0.386,3.662,4.333,-5.676
0.276,-0.951,-0.348,-0.122,-0.671,-7.324
0.246,-0.977,-0.327,-0.366,-3.540,-8.057
0.232,-0.982,-0.308,0.305,-4.944,-6.348
0.222,-0.982,-0.282,0.427,-5.005,-4.028
0.218,-0.979,-0.274,1.099,-3.967,-1.160
0.234,-0.960,-0.276,1.648,-2.502,2.075
0.248,-0.944,-0.278,-0.122,0.610,3.723
0.265,-0.920,-0.282,-3.418,5.310,3.174
0.263,-0.917,-0.292,-6.470,9.583,0.854
0.251,-0.921,-0.311,-7.751,11.536,-1.282
