aX,aY,aZ,gX,gY,gZ
1.475,0.784,1.264,9.888,-49.438,63.416
1.616,0.937,1.406,8.301,-30.640,64.758
1.705,1.125,1.499,16.907,-18.921,53.101
1.725,1.289,1.503,25.208,-9.216,38.818
1.788,1.333,1.532,25.696,-1.038,27.100
1.750,1.352,1.574,19.836,6.592,14.526
1.640,1.320,1.633,5.432,18.066,9.338
1.505,1.276,1.665,-8.301,27.649,11.841
1.375,1.267,1.732,-21.912,34.302,21.118
1.200,1.275,1.818,-31.189,40.100,31.616
1.022,1.277,1.885,-33.630,44.128,37.415
0.741,1.287,1.952,-31.494,46.448,35.339
0.421,1.316,2.018,-27.283,45.593,25.635
0.083,1.307,1.977,-21.240,43.213,17.090
-0.142,1.278,1.866,-17.395,39.307,12.024
-0.400,1.243,1.782,-22.522,39.246,3.845
-0.703,1.146,1.637,-29.053,43.213,-9.521
-1.010,1.016,1.478,-31.067,44.556,-29.419
-1.258,0.803,1.390,-31.799,42.297,-55.969
-1.515,0.475,1.269,-29.724,39.124,-85.022
-1.659,0.105,1.063,-21.301,36.987,-105.347
-1.730,-0.181,0.801,-8.606,37.170,-106.567
-1.686,-0.271,0.589,-1.160,39.734,-84.778
-1.700,-0.243,0.334,6.531,45.837,-52.490
-1.696,-0.110,0.126,9.338,44.312,-24.353
-1.633,0.057,0.043,4.028,29.236,-1.282
-1.511,0.257,0.013,-4.700,18.433,15.930
-1.334,0.475,0.049,-22.827,16.296,28.320
-1.185,0.634,0.131,-47.852,23.437,32.593
-1.074,0.640,0.218,-71.167,34.851,26.245
-1.013,0.516,0.308,-82.092,39.246,8.423
-0.966,0.340,0.367,-75.562,40.039,-13.489
-1.071,0.198,0.303,-55.969,45.654,-29.907
-1.194,0.141,0.076,-28.320,50.537,-34.058
-1.082,0.148,-0.040,-5.798,39.856,-27.649
-0.945,0.197,0.003,-0.793,25.574,-16.785
-0.840,0.252,0.084,-3.174,19.470,-6.592
-0.697,0.292,0.191,-5.798,10.315,-0.977
-0.575,0.307,0.300,-6.897,-0.793,-0.488
-0.474,0.345,0.393,-8.484,-4.028,-0.244
-0.405,0.383,0.446,-11.292,-1.099,0.854
-0.356,0.425,0.477,-14.404,2.441,0.305
-0.329,0.453,0.521,-17.029,6.042,-1.221
-0.336,0.466,0.528,-15.930,12.390,-1.282
-0.340,0.479,0.512,-10.437,18.188,1.404
-0.315,0.515,0.495,-4.456,22.278,5.798
-0.291,0.572,0.448,1.648,23.926,9.094
-0.248,0.643,0.437,5.798,21.973,10.193
-0.206,0.694,0.473,6.836,18.311,8.057
-0.188,0.706,0.499,6.348,15.808,2.808
-0.167,0.697,0.535,4.639,10.986,-4.272
-0.151,0.642,0.605,0.610,5.310,-10.925
-0.130,0.558,0.666,-3.113,2.747,-15.259
-0.120,0.483,0.726,-6.104,3.296,-15.808
-0.107,0.431,0.746,-6.958,5.981,-12.451
-0.078,0.421,0.732,-5.249,10.376,-5.859
-0.079,0.460,0.705,-3.723,14.832,1.953
-0.065,0.531,0.662,-1.343,17.883,8.789
-0.075,0.639,0.625,1.160,19.470,13.184
-0.070,0.748,0.590,2.563,17.700,14.282
-0.049,0.818,0.566,3.845,11.658,11.475
0.008,0.854,0.573,3.723,5.676,5.554
0.026,0.836,0.591,0.427,3.052,-1.526
0.011,0.784,0.617,-3.357,2.686,-7.263
-0.007,0.704,0.676,-6.653,2.197,-10.742
-0.026,0.622,0.726,-8.179,2.380,-9.644
-0.002,0.583,0.758,-7.141,5.432,-4.395
0.029,0.581,0.783,-5.310,7.568,1.282
0.052,0.613,0.786,0.061,9.216,4.761
0.056,0.670,0.757,8.789,11.536,4.761
0.047,0.725,0.712,16.846,12.146,2.014
0.039,0.766,0.642,20.935,10.010,-1.465
0.065,0.785,0.606,19.836,5.676,-3.906
0.071,0.787,0.604,13.550,3.296,-5.798
0.056,0.769,0.636,4.456,3.845,-7.202
0.047,0.726,0.688,-2.930,5.066,-7.141
0.052,0.674,0.740,-6.531,6.409,-5.798
0.056,0.635,0.775,-5.737,7.019,-4.822
0.059,0.624,0.776,0.000,7.751,-4.883
0.049,0.627,0.768,6.897,6.348,-5.981
0.045,0.631,0.726,13.916,6.470,-6.409
0.027,0.650,0.681,16.357,7.080,-5.066
0.007,0.668,0.645,15.015,7.202,-3.235
0.032,0.688,0.647,10.986,4.944,0.122
0.044,0.717,0.669,6.592,4.150,3.357
0.057,0.741,0.691,3.784,4.761,5.371
0.071,0.749,0.709,3.723,4.578,5.127
0.082,0.746,0.721,5.127,4.272,2.502
0.079,0.738,0.730,7.263,5.615,-0.732
0.062,0.700,0.725,9.644,6.165,-3.479
0.037,0.673,0.699,12.024,6.836,-4.333
0.035,0.665,0.685,12.329,7.874,-3.113
0.032,0.668,0.676,9.827,8.362,-0.122
0.031,0.678,0.666,7.019,8.850,2.380
0.035,0.687,0.655,4.395,8.972,3.540
0.044,0.693,0.662,1.831,8.362,3.540
0.041,0.688,0.661,-0.061,8.240,2.075
0.031,0.690,0.662,-0.610,8.423,0.427
0.016,0.691,0.674,-0.610,7.568,-0.977
0.013,0.690,0.667,1.465,7.507,-1.282
0.010,0.683,0.675,3.479,8.423,0.000
-0.007,0.671,0.668,4.761,9.094,1.892
-0.014,0.668,0.665,7.141,8.606,4.150
0.018,0.658,0.661,8.850,6.836,6.409
0.035,0.656,0.657,8.118,5.005,7.202
0.016,0.665,0.645,6.226,4.150,6.958
0.011,0.675,0.638,4.700,3.235,7.507
0.032,0.676,0.638,1.770,0.549,7.629
0.023,0.697,0.632,-1.343,-1.526,6.897
0.035,0.714,0.634,-2.502,-3.601,5.188
0.044,0.716,0.652,-2.625,-6.104,2.319
0.041,0.709,0.674,-1.831,-7.446,-1.160
0.031,0.690,0.679,-0.549,-6.165,-3.540
0.021,0.667,0.684,0.305,-4.517,-4.150
0.021,0.656,0.689,0.854,-2.502,-3.052
0.028,0.653,0.680,1.587,0.916,-0.183
0.023,0.654,0.659,1.648,4.272,2.136
0.035,0.680,0.659,0.916,5.310,4.272
0.056,0.706,0.663,0.366,6.042,4.517

1.282,0.789,1.010,17.456,-29.175,26.062
1.437,0.803,1.058,21.362,-28.625,23.743
1.584,0.840,1.115,28.381,-26.489,20.264
1.701,0.946,1.207,35.095,-26.062,14.038
1.706,1.084,1.337,34.729,-28.748,5.493
1.624,1.221,1.485,27.588,-26.611,-2.991
1.533,1.290,1.618,13.794,-21.790,-5.249
1.443,1.252,1.731,-5.188,-14.587,-1.892
1.305,1.200,1.849,-26.855,-4.028,2.380
1.132,1.163,1.946,-41.443,13.489,3.845
0.866,1.078,1.903,-41.443,32.349,2.563
0.549,1.009,1.781,-38.208,45.471,-0.916
0.279,0.961,1.665,-29.907,54.993,-4.944
-0.040,0.902,1.482,-17.029,59.753,-10.254
-0.281,0.849,1.242,-2.869,59.509,-16.174
-0.485,0.825,1.054,3.845,51.575,-20.752
-0.672,0.761,0.897,3.296,41.748,-27.039
-0.918,0.617,0.715,-2.380,33.752,-36.316
-1.205,0.445,0.554,-10.742,24.475,-45.898
-1.419,0.326,0.473,-15.381,13.672,-52.795
-1.610,0.280,0.439,-10.498,2.686,-51.758
-1.650,0.278,0.414,-4.700,-4.883,-41.809
-1.564,0.329,0.407,-1.831,-6.287,-26.428
-1.475,0.384,0.419,-3.784,-4.211,-14.282
-1.427,0.415,0.392,-7.935,-1.404,-8.606
-1.330,0.412,0.361,-11.841,-0.610,-8.423
-1.260,0.399,0.389,-19.470,-1.282,-12.085
-1.256,0.358,0.424,-31.921,1.160,-15.198
-1.248,0.328,0.447,-43.213,5.249,-15.015
-1.190,0.328,0.555,-49.988,4.578,-13.245
-1.097,0.306,0.601,-41.382,1.953,-13.245
-0.996,0.270,0.536,-20.691,-0.732,-17.273
-0.946,0.240,0.431,0.366,-2.625,-25.452
-0.918,0.239,0.300,16.235,-2.563,-29.907
-0.853,0.260,0.209,21.851,-2.136,-26.062
-0.773,0.316,0.217,11.536,-1.465,-13.489
-0.670,0.388,0.269,-8.118,3.296,4.089
-0.533,0.464,0.356,-28.564,10.193,21.179
-0.456,0.530,0.453,-40.283,17.212,31.799
-0.352,0.597,0.482,-34.607,19.104,31.982
-0.236,0.632,0.471,-16.602,12.024,20.508
-0.197,0.656,0.447,0.854,3.845,4.761
-0.232,0.647,0.408,10.498,-0.061,-7.019
-0.297,0.633,0.383,9.827,-1.709,-11.536
-0.311,0.617,0.412,0.671,-2.747,-7.874
-0.322,0.619,0.445,-9.705,-2.563,0.977
-0.249,0.624,0.521,-19.714,-2.625,10.376
-0.190,0.635,0.606,-25.269,-0.549,16.235
-0.153,0.646,0.672,-24.292,3.662,15.808
-0.130,0.647,0.711,-19.104,5.859,10.010
-0.148,0.637,0.711,-12.390,6.958,2.502
-0.183,0.622,0.672,-5.432,8.606,-3.235
-0.197,0.614,0.641,-1.892,8.179,-5.859
-0.213,0.606,0.604,-1.587,8.789,-6.042
-0.254,0.587,0.565,-3.601,9.705,-5.371
-0.267,0.569,0.562,-7.324,9.766,-4.211
-0.281,0.565,0.575,-12.329,9.521,-1.038
-0.263,0.582,0.610,-16.296,9.766,3.540
-0.248,0.607,0.655,-18.127,11.963,6.897
-0.249,0.634,0.681,-16.418,13.428,8.301
-0.235,0.655,0.680,-9.888,12.817,7.263
-0.221,0.679,0.650,-0.305,11.047,3.113
-0.186,0.696,0.612,8.606,7.324,-2.075
-0.181,0.705,0.578,12.268,3.967,-5.615
-0.184,0.698,0.563,9.521,2.930,-7.263
-0.206,0.688,0.567,2.625,2.625,-5.798
-0.206,0.668,0.580,-5.310,2.197,-2.502
-0.179,0.649,0.623,-12.695,1.160,2.014
-0.178,0.637,0.665,-16.907,1.770,6.409
-0.148,0.640,0.702,-15.381,2.502,10.010
-0.118,0.648,0.722,-8.667,2.991,10.498
-0.111,0.674,0.705,0.793,3.113,8.057
-0.110,0.696,0.674,10.132,1.587,3.235
-0.121,0.710,0.648,14.893,-0.061,-1.282
-0.120,0.723,0.633,14.099,-0.244,-2.319
-0.104,0.732,0.642,8.362,-0.305,-0.977
-0.086,0.739,0.666,0.366,1.465,0.793
-0.084,0.747,0.706,-5.615,4.211,1.648
-0.100,0.754,0.708,-6.348,6.470,0.244
-0.102,0.756,0.702,-2.869,7.263,-3.296
-0.104,0.716,0.675,2.930,5.432,-8.179
-0.126,0.642,0.637,8.240,2.075,-14.404
-0.156,0.585,0.606,11.230,-1.465,-16.296
-0.165,0.550,0.608,9.644,-3.296,-11.902
-0.162,0.550,0.629,3.418,-2.441,-3.479
-0.119,0.589,0.675,-4.272,0.427,7.019
-0.071,0.661,0.737,-10.254,3.845,14.343
-0.065,0.730,0.740,-10.132,8.118,15.076
-0.045,0.793,0.728,-4.578,10.010,9.338
-0.041,0.821,0.688,3.784,9.216,-0.427
-0.048,0.829,0.642,12.146,7.385,-10.498
-0.072,0.812,0.602,14.526,6.958,-18.799
-0.104,0.776,0.591,9.827,7.629,-22.339
-0.128,0.728,0.629,-0.122,7.263,-21.729
-0.137,0.679,0.683,-9.155,6.470,-17.822
-0.145,0.639,0.706,-14.099,7.812,-12.024
-0.116,0.612,0.743,-16.479,7.324,-6.653
-0.088,0.601,0.768,-15.381,5.859,-3.296
-0.063,0.608,0.785,-9.216,5.493,-1.831
-0.043,0.635,0.765,0.061,6.104,-2.441
-0.030,0.668,0.729,9.705,6.348,-4.089
-0.033,0.703,0.682,16.663,7.263,-5.066
-0.036,0.740,0.635,19.775,8.301,-4.883
-0.038,0.779,0.611,17.456,9.277,-4.333
-0.023,0.815,0.601,11.108,10.193,-4.211
-0.015,0.834,0.614,2.686,10.010,-5.615
-0.017,0.829,0.658,-4.028,8.850,-10.193
-0.025,0.783,0.682,-7.629,7.568,-16.724
-0.035,0.722,0.689,-6.897,4.578,-24.292
-0.061,0.648,0.672,-1.160,0.000,-30.273
-0.081,0.591,0.646,7.263,-2.747,-31.738
-0.115,0.561,0.625,10.864,-2.380,-28.320
-0.144,0.554,0.602,10.376,0.305,-20.752
-0.140,0.573,0.602,6.226,3.052,-10.864
-0.112,0.613,0.608,0.916,4.272,-2.075
-0.083,0.645,0.628,-2.930,5.737,4.089
-0.042,0.695,0.651,-5.127,6.836,7.019
0.010,0.750,0.654,-5.615,8.484,5.432
0.025,0.773,0.649,-6.104,7.935,-0.061

1.056,0.650,0.935,-4.944,-12.512,1.648
1.200,0.607,0.997,-7.629,-13.123,6.531
1.325,0.613,1.135,-10.254,-14.709,12.878
1.416,0.754,1.322,-8.850,-13.916,18.982
1.536,1.034,1.463,-0.427,-6.714,24.719
1.617,1.307,1.524,4.150,6.836,25.452
1.667,1.515,1.656,-5.798,19.165,15.625
1.611,1.592,1.718,-23.926,36.194,-3.113
1.549,1.539,1.766,-46.692,58.411,-27.832
1.447,1.437,1.761,-64.880,73.914,-55.786
1.190,1.283,1.635,-71.228,87.708,-82.825
0.969,1.078,1.495,-66.284,88.928,-107.544
0.775,0.847,1.448,-53.284,76.660,-126.526
0.512,0.691,1.443,-37.903,67.444,-135.315
0.232,0.547,1.423,-22.400,67.993,-130.249
0.031,0.463,1.414,-11.841,72.449,-108.826
-0.151,0.495,1.387,-6.531,76.904,-76.172
-0.313,0.537,1.290,-4.333,78.552,-42.908
-0.437,0.598,1.132,-3.357,76.416,-15.381
-0.644,0.672,0.917,-0.305,62.561,3.174
-0.850,0.774,0.769,4.944,43.396,15.442
-0.988,0.882,0.649,14.282,29.541,20.386
-1.144,0.920,0.582,19.836,18.677,18.494
-1.241,0.894,0.544,21.545,10.254,11.719
-1.260,0.814,0.481,21.545,6.592,6.226
-1.274,0.703,0.398,15.381,5.859,6.897
-1.308,0.594,0.387,-0.183,7.874,13.977
-1.291,0.444,0.418,-15.991,10.620,26.978
-1.250,0.402,0.428,-26.733,15.930,45.349
-1.161,0.496,0.405,-29.968,24.658,63.416
-1.046,0.618,0.391,-29.846,28.442,72.754
-0.962,0.689,0.378,-24.597,22.766,68.176
-0.896,0.719,0.345,-12.695,9.888,52.185
-0.816,0.713,0.335,-5.005,-1.099,32.410
-0.812,0.669,0.339,-7.690,-5.554,14.587
-0.780,0.616,0.349,-14.587,-6.531,2.747
-0.716,0.547,0.321,-21.545,-1.831,-1.953
-0.676,0.483,0.265,-29.785,4.761,-2.014
-0.644,0.456,0.288,-40.466,9.155,0.366
-0.578,0.476,0.330,-48.645,13.123,5.432
-0.481,0.524,0.372,-51.331,17.334,9.094
-0.416,0.579,0.435,-47.485,20.081,7.690
-0.364,0.602,0.463,-35.400,19.226,0.244
-0.306,0.601,0.422,-15.198,13.428,-11.169
-0.269,0.591,0.325,6.287,5.554,-23.499
-0.291,0.592,0.238,19.226,-2.625,-32.654
-0.331,0.562,0.186,20.203,-9.827,-35.400
-0.336,0.545,0.222,10.742,-15.320,-31.128
-0.317,0.534,0.299,-4.150,-15.686,-21.729
-0.267,0.522,0.381,-16.968,-12.207,-10.986
-0.205,0.506,0.482,-25.024,-7.996,-3.540
-0.157,0.501,0.575,-25.024,-5.005,0.488
-0.089,0.516,0.628,-14.954,-2.991,0.977
-0.047,0.550,0.610,0.244,-0.183,-2.136
-0.057,0.600,0.552,12.817,3.113,-4.578
-0.078,0.645,0.508,18.066,5.127,-4.883
-0.098,0.672,0.474,17.273,6.531,-2.686
-0.095,0.693,0.467,10.620,7.996,1.648
-0.078,0.702,0.503,1.404,8.179,4.578
-0.069,0.706,0.551,-4.150,7.690,4.944
-0.071,0.689,0.567,-4.150,7.874,3.357
-0.067,0.663,0.566,-0.854,7.080,1.160
-0.072,0.653,0.557,4.211,6.836,0.305
-0.051,0.652,0.550,9.399,6.592,0.732
-0.041,0.648,0.527,12.756,6.104,2.197
-0.034,0.682,0.520,12.451,5.920,4.639
-0.021,0.730,0.544,8.545,6.714,7.629
0.004,0.787,0.587,4.028,8.911,10.071
0.030,0.836,0.613,0.732,11.536,9.644
0.041,0.879,0.630,0.183,12.756,5.371
0.045,0.895,0.636,2.563,11.230,-2.014
0.042,0.849,0.613,4.944,7.568,-9.216
0.035,0.788,0.575,5.615,4.944,-13.489
0.018,0.744,0.552,-1.282,2.441,-12.939
0.022,0.742,0.602,-14.404,3.235,-7.019
0.021,0.833,0.723,-32.104,11.353,3.296
0.013,0.959,0.754,-42.236,23.315,13.000
0.034,1.041,0.675,-39.856,30.273,13.672
0.068,1.005,0.530,-32.043,26.978,3.296
0.148,0.877,0.419,-22.156,16.174,-10.742
0.149,0.770,0.433,-15.381,5.737,-23.926
0.057,0.668,0.489,-14.221,-0.916,-32.288
-0.006,0.615,0.550,-15.076,-3.540,-33.020
-0.024,0.591,0.608,-16.602,-3.296,-25.391
-0.042,0.589,0.640,-17.639,0.488,-12.512
-0.023,0.612,0.659,-16.663,5.920,0.183
0.015,0.652,0.666,-11.841,8.179,8.545
0.053,0.681,0.650,-3.174,6.348,10.132
0.083,0.708,0.633,8.240,3.601,7.629
0.081,0.744,0.607,18.372,2.502,4.822
0.091,0.789,0.571,24.231,2.197,3.113
0.107,0.831,0.524,24.536,1.892,2.197
0.115,0.851,0.492,19.714,1.953,1.343
0.111,0.858,0.495,10.559,1.465,0.061
0.095,0.842,0.527,0.122,1.099,-1.038
0.083,0.822,0.575,-7.141,1.953,-1.404
0.072,0.795,0.632,-10.559,2.502,-2.136
0.059,0.756,0.654,-7.935,2.869,-3.113
0.049,0.725,0.643,-1.648,2.625,-3.723
0.053,0.706,0.621,5.859,1.892,-3.845
0.059,0.696,0.585,11.169,1.892,-2.991
0.067,0.697,0.559,12.695,2.319,-1.160
0.048,0.705,0.549,9.644,3.174,0.977
0.036,0.717,0.552,4.578,4.517,4.211
0.032,0.743,0.580,-1.160,6.287,7.996
0.026,0.769,0.605,-4.700,8.423,10.254
0.033,0.782,0.592,-3.601,8.240,8.972
0.073,0.764,0.566,1.831,5.310,4.211
0.085,0.737,0.533,8.118,3.296,-0.977
0.066,0.710,0.519,11.230,2.930,-4.761
0.041,0.688,0.537,11.108,0.916,-5.676
0.031,0.669,0.567,10.437,-1.282,-4.456
0.029,0.671,0.585,9.644,-1.465,-1.221
0.036,0.699,0.589,8.545,0.305,3.601
0.054,0.734,0.587,7.812,1.709,7.324
0.077,0.757,0.589,7.996,2.380,7.996
0.087,0.764,0.580,11.108,2.319,6.165
0.098,0.765,0.559,15.564,1.099,3.113
0.101,0.759,0.539,18.494,-0.366,0.244

1.143,1.100,0.990,-0.366,-35.278,38.025
1.362,1.437,1.058,8.484,-33.752,37.231
1.559,1.755,1.108,15.320,-34.912,31.128
1.738,1.997,1.255,6.287,-33.875,23.621
1.810,2.059,1.510,-25.391,-24.536,16.846
1.785,1.938,1.899,-73.242,-11.597,6.165
1.729,1.752,2.335,-113.892,-0.183,-10.071
1.572,1.555,2.598,-123.840,11.597,-28.870
1.361,1.389,2.637,-103.699,29.785,-48.828
1.039,1.247,2.488,-64.636,51.514,-66.528
0.687,1.127,2.265,-23.132,69.519,-72.937
0.423,1.035,1.925,15.747,81.604,-67.078
0.221,0.981,1.574,41.199,89.722,-53.772
0.016,0.964,1.285,48.096,91.370,-43.945
-0.163,0.938,1.088,49.011,83.801,-46.021
-0.409,0.864,1.004,42.786,70.984,-59.692
-0.712,0.739,0.961,32.043,58.838,-76.782
-0.967,0.583,0.899,23.499,47.546,-87.097
-1.112,0.469,0.781,21.423,40.039,-87.585
-1.202,0.357,0.672,19.897,36.926,-84.351
-1.281,0.229,0.589,13.000,33.875,-80.200
-1.370,0.127,0.590,0.183,31.311,-72.754
-1.455,0.102,0.606,-8.179,34.119,-57.983
-1.471,0.151,0.593,-8.179,38.696,-38.635
-1.437,0.251,0.512,-0.977,41.443,-19.836
-1.377,0.393,0.386,9.216,44.250,-5.005
-1.246,0.507,0.259,18.188,45.837,4.578
-1.131,0.543,0.105,23.743,43.945,9.399
-1.037,0.512,0.034,18.799,38.147,9.766
-1.023,0.473,0.042,1.038,33.508,9.827
-0.997,0.446,0.063,-19.775,31.128,12.756
-0.923,0.411,0.110,-37.415,25.024,16.541
-0.841,0.393,0.171,-45.898,22.949,19.043
-0.784,0.404,0.205,-43.335,24.170,16.968
-0.722,0.412,0.211,-31.738,20.569,9.094
-0.663,0.414,0.198,-18.799,13.611,0.977
-0.601,0.427,0.191,-8.484,10.620,-4.089
-0.571,0.425,0.190,-5.249,9.949,-6.470
-0.529,0.428,0.193,-5.066,8.362,-7.446
-0.471,0.444,0.208,-7.874,5.554,-7.324
-0.392,0.461,0.255,-12.268,4.822,-5.981
-0.334,0.475,0.300,-13.672,6.775,-4.456
-0.284,0.490,0.364,-11.719,7.263,-4.333
-0.257,0.484,0.408,-6.226,6.897,-5.188
-0.214,0.471,0.427,1.526,7.141,-5.310
-0.193,0.474,0.437,5.981,7.141,-4.333
-0.190,0.474,0.458,6.348,7.385,-2.319
-0.192,0.480,0.491,4.333,9.094,3.052
-0.187,0.507,0.520,1.953,12.756,10.376
-0.151,0.557,0.541,1.160,13.000,16.174
-0.118,0.599,0.535,3.662,10.193,17.578
-0.078,0.633,0.486,12.085,6.958,15.381
-0.066,0.657,0.456,16.235,3.906,11.780
-0.084,0.682,0.466,11.902,3.357,10.681
-0.102,0.702,0.505,0.916,4.456,13.062
-0.082,0.723,0.573,-10.071,5.432,16.968
-0.052,0.729,0.642,-18.555,7.690,19.958
-0.037,0.737,0.687,-21.973,12.329,20.142
-0.028,0.744,0.714,-18.738,16.418,17.090
-0.010,0.730,0.703,-8.850,17.578,11.414
-0.013,0.709,0.637,3.723,16.357,3.784
-0.032,0.703,0.571,12.817,12.756,-2.625
-0.057,0.707,0.534,13.428,8.301,-3.845
-0.075,0.718,0.530,6.775,4.883,-0.488
-0.061,0.732,0.566,-4.089,4.028,5.310
-0.038,0.749,0.610,-13.428,4.639,10.986
0.003,0.778,0.669,-17.944,4.944,12.695
0.033,0.797,0.693,-14.404,5.188,9.460
0.039,0.798,0.683,-5.798,5.554,3.784
0.037,0.795,0.657,2.441,3.967,-2.380
0.038,0.790,0.635,8.301,2.502,-6.348
0.027,0.785,0.629,10.254,2.686,-7.751
0.014,0.781,0.616,7.874,4.761,-6.348
0.024,0.793,0.619,3.235,7.141,-3.967
0.032,0.797,0.629,-1.648,9.094,-2.075
0.039,0.795,0.648,-6.226,10.925,-0.549
0.041,0.788,0.666,-9.033,10.864,-0.793
0.038,0.773,0.678,-9.277,9.338,-3.174
0.038,0.775,0.687,-6.470,8.179,-5.188
0.030,0.768,0.673,-1.343,7.019,-8.789
0.029,0.753,0.647,3.906,3.418,-12.024
0.037,0.737,0.630,7.080,-0.916,-14.282
0.036,0.729,0.626,8.179,-2.075,-14.709
0.030,0.729,0.616,6.409,-0.916,-13.428
0.030,0.728,0.627,1.770,0.732,-10.742
0.027,0.734,0.637,-2.930,3.601,-6.653
0.046,0.752,0.651,-6.775,6.958,-3.601
0.072,0.763,0.653,-8.911,9.827,-2.136
0.098,0.767,0.651,-9.094,12.085,-3.418
0.088,0.775,0.651,-6.958,13.245,-7.141
0.081,0.781,0.635,-2.686,13.367,-12.390
0.056,0.763,0.613,2.258,11.963,-16.785
0.056,0.736,0.583,5.676,9.155,-18.250
0.046,0.721,0.581,4.639,6.470,-17.517
0.038,0.715,0.587,0.977,6.104,-14.771
0.044,0.713,0.604,-3.540,5.676,-11.414
0.060,0.708,0.635,-7.446,6.226,-8.423
0.082,0.704,0.664,-9.277,8.423,-6.714
0.108,0.701,0.688,-8.850,11.780,-6.958
0.115,0.695,0.690,-6.104,15.320,-8.728
0.089,0.686,0.650,-1.465,18.982,-11.719
0.079,0.690,0.610,3.601,19.958,-15.137
0.087,0.697,0.581,7.019,18.250,-17.273
0.067,0.693,0.544,6.165,17.822,-17.944
0.051,0.711,0.528,1.770,18.005,-16.541
0.037,0.723,0.550,-3.052,15.503,-14.343
0.011,0.735,0.568,-5.066,9.705,-10.254
0.052,0.712,0.582,-4.272,4.761,-5.249
0.081,0.697,0.582,-0.610,2.869,-2.136
0.092,0.688,0.591,-0.549,3.296,-2.075
0.104,0.679,0.591,0.854,3.113,-1.831
0.101,0.673,0.595,2.441,3.052,-0.427
0.095,0.676,0.603,3.784,4.639,0.488
0.084,0.687,0.592,5.066,6.653,1.404
0.084,0.694,0.568,5.310,8.362,2.197
0.096,0.723,0.580,3.540,9.399,2.686
0.094,0.728,0.585,3.784,11.597,2.991
0.108,0.742,0.556,5.859,12.634,3.784
0.102,0.720,0.547,6.104,8.484,3.479

0.757,1.008,1.032,9.155,-8.789,36.255
0.743,1.119,1.028,10.071,-13.611,32.837
0.729,1.164,1.029,1.892,-20.142,39.917
0.770,1.167,0.990,-15.564,-16.602,57.373
0.804,1.163,1.047,-48.706,-1.404,78.979
0.809,1.151,1.175,-83.252,14.160,96.008
0.788,1.131,1.287,-97.534,25.208,101.807
0.769,1.155,1.361,-82.092,23.865,92.896
0.675,1.260,1.409,-44.617,7.996,68.604
0.592,1.385,1.459,-0.793,-11.353,37.048
0.519,1.463,1.484,39.185,-23.071,9.277
0.390,1.477,1.478,60.303,-19.958,-11.475
0.225,1.433,1.462,59.631,-7.568,-24.231
0.025,1.386,1.427,42.358,8.789,-31.494
-0.213,1.324,1.372,19.592,25.879,-37.720
-0.466,1.232,1.233,1.160,38.147,-43.335
-0.621,1.131,1.108,-8.118,44.617,-48.157
-0.786,1.029,1.005,-16.357,48.889,-53.101
-0.939,0.941,0.915,-21.912,51.025,-59.814
-1.095,0.876,0.846,-21.545,47.852,-68.420
-1.222,0.813,0.787,-17.822,39.978,-77.454
-1.276,0.761,0.765,-14.282,31.189,-83.862
-1.302,0.706,0.732,-12.512,27.222,-85.449
-1.316,0.651,0.702,-14.099,27.832,-84.229
-1.284,0.573,0.673,-15.808,28.748,-82.642
-1.223,0.486,0.641,-16.296,30.945,-82.825
-1.172,0.397,0.553,-13.611,34.302,-82.825
-1.128,0.323,0.444,-7.080,37.598,-81.787
-1.083,0.261,0.307,-0.732,40.894,-79.285
-1.069,0.239,0.174,3.662,43.579,-74.524
-1.039,0.258,0.125,0.916,42.603,-67.566
-0.974,0.287,0.144,-8.545,39.917,-58.289
-0.907,0.328,0.182,-20.508,41.321,-47.546
-0.829,0.349,0.210,-29.236,44.861,-39.124
-0.759,0.379,0.278,-32.776,41.809,-34.363
-0.663,0.397,0.339,-27.893,35.461,-34.058
-0.591,0.402,0.329,-15.381,33.142,-36.438
-0.577,0.411,0.288,-1.465,31.677,-39.612
-0.569,0.404,0.256,10.071,26.367,-41.870
-0.565,0.375,0.241,17.944,20.691,-41.321
-0.538,0.368,0.267,16.296,17.639,-36.377
-0.510,0.355,0.287,8.911,18.127,-27.161
-0.463,0.366,0.291,2.319,21.362,-17.639
-0.413,0.367,0.301,-1.038,22.461,-10.620
-0.359,0.384,0.322,-1.282,20.447,-6.714
-0.338,0.410,0.344,2.441,15.808,-7.141
-0.311,0.451,0.352,9.827,12.207,-9.277
-0.286,0.485,0.346,17.639,10.193,-10.986
-0.254,0.505,0.352,21.667,8.789,-10.498
-0.234,0.526,0.372,17.700,8.118,-8.545
-0.243,0.548,0.402,9.583,8.728,-5.371
-0.231,0.537,0.426,1.526,7.874,-3.784
-0.209,0.521,0.460,-3.357,5.493,-1.770
-0.183,0.521,0.497,-5.493,5.127,0.732
-0.176,0.514,0.496,-4.211,7.202,2.563
-0.169,0.534,0.497,-2.563,7.751,3.906
-0.175,0.566,0.497,-0.854,5.676,3.906
-0.170,0.606,0.504,0.732,3.479,4.639
-0.135,0.640,0.521,1.465,2.808,5.920
-0.100,0.667,0.537,1.831,2.747,6.287
-0.074,0.684,0.557,2.930,1.892,4.639
-0.056,0.690,0.568,3.906,1.648,1.221
-0.064,0.688,0.550,6.775,2.319,-2.563
-0.064,0.685,0.544,7.568,3.174,-4.456
-0.079,0.672,0.540,5.310,3.723,-4.395
-0.095,0.672,0.556,0.549,4.150,-2.319
-0.083,0.683,0.585,-4.395,5.798,1.160
-0.066,0.698,0.631,-7.324,8.179,4.211
-0.040,0.690,0.659,-6.836,10.193,5.249
-0.024,0.679,0.666,-3.540,10.193,3.906
-0.013,0.666,0.672,0.732,5.920,-0.061
-0.021,0.657,0.656,6.897,0.305,-3.784
-0.020,0.660,0.629,12.390,-0.549,-4.761
-0.025,0.674,0.600,13.245,0.549,-3.662
-0.038,0.688,0.570,10.376,1.587,-0.854
-0.026,0.715,0.558,5.615,2.930,2.686
-0.028,0.743,0.571,0.000,4.700,5.127
-0.034,0.769,0.592,-2.930,5.920,5.737
-0.012,0.788,0.613,-2.747,6.226,4.517
-0.010,0.785,0.609,-0.977,5.615,1.709
-0.005,0.771,0.611,0.977,3.357,-2.258
-0.013,0.755,0.621,2.930,1.709,-4.333
-0.014,0.750,0.647,3.784,0.793,-4.456
-0.017,0.736,0.658,3.235,0.854,-3.357
-0.006,0.728,0.662,3.174,2.014,-0.427
0.002,0.742,0.649,4.150,4.028,3.845
0.031,0.764,0.640,4.272,4.456,6.287
0.035,0.790,0.632,4.089,3.967,6.653
0.032,0.807,0.636,3.418,3.296,5.981
0.028,0.822,0.646,2.625,3.174,5.432
0.034,0.832,0.650,1.770,3.662,4.578
0.046,0.827,0.655,1.343,3.723,2.991
0.048,0.819,0.656,1.038,4.028,1.221
0.042,0.805,0.667,0.183,4.272,-1.343
0.045,0.776,0.661,0.854,4.883,-3.662
0.030,0.747,0.646,2.258,5.005,-4.883
0.013,0.734,0.619,3.052,5.249,-5.310
-0.002,0.725,0.600,3.052,5.188,-4.761
-0.020,0.732,0.590,1.953,5.188,-2.625
-0.020,0.752,0.592,1.099,5.127,0.671
-0.013,0.781,0.602,0.549,5.005,2.930
0.007,0.802,0.610,0.610,4.639,3.357
0.017,0.816,0.622,0.793,3.723,1.709
0.030,0.809,0.634,2.075,2.563,-0.854
0.032,0.792,0.638,3.296,2.136,-3.174
0.033,0.772,0.639,3.662,2.136,-4.150
0.031,0.759,0.642,2.930,1.831,-4.517
0.019,0.751,0.655,2.380,1.648,-4.333
0.015,0.754,0.653,0.977,2.747,-4.150
0.019,0.754,0.646,0.793,3.479,-4.150
0.026,0.755,0.637,1.282,3.784,-4.089
0.017,0.754,0.627,2.258,4.333,-4.089
0.013,0.750,0.619,3.418,4.272,-4.395
0.015,0.733,0.615,3.906,4.333,-5.371
0.008,0.720,0.608,3.601,4.700,-6.409
0.004,0.714,0.608,2.747,5.798,-6.287
0.006,0.703,0.609,1.709,6.836,-4.944
0.000,0.706,0.611,0.793,7.629,-3.723
-0.001,0.711,0.604,1.282,7.751,-2.197

0.848,0.924,1.106,0.854,4.272,41.260
0.976,0.992,1.120,0.671,11.536,42.297
1.064,1.043,1.080,1.892,20.874,40.161
1.155,1.084,1.035,3.662,28.870,36.377
1.177,1.062,1.000,3.967,30.823,29.175
1.136,1.095,1.019,2.502,29.236,23.804
1.091,1.138,1.023,3.418,30.884,19.531
1.050,1.142,1.038,3.357,30.090,16.357
0.973,1.126,1.052,2.380,27.527,16.541
0.885,1.052,1.001,3.235,27.710,19.165
0.810,1.015,0.959,3.662,31.189,24.048
0.732,1.032,0.970,3.479,33.203,28.442
0.618,1.064,0.984,6.226,32.593,28.870
0.507,1.142,0.980,11.963,31.677,24.719
0.384,1.212,0.973,14.709,29.907,17.029
0.223,1.219,0.924,10.193,30.334,7.202
0.066,1.203,0.874,-4.150,30.334,-0.916
-0.114,1.158,0.906,-28.687,27.222,-5.493
-0.310,1.057,0.999,-58.105,23.132,-8.972
-0.515,0.937,1.061,-80.566,19.409,-12.817
-0.689,0.805,1.105,-91.736,15.564,-18.311
-0.841,0.662,1.141,-90.271,8.850,-23.499
-0.933,0.549,1.174,-74.463,1.465,-27.405
-1.043,0.495,1.194,-53.955,-4.456,-31.799
-1.104,0.439,1.157,-28.320,-8.972,-36.743
-1.146,0.387,1.037,-3.418,-12.939,-39.673
-1.133,0.345,0.885,13.245,-13.123,-38.513
-1.090,0.309,0.755,16.479,-11.475,-34.424
-1.049,0.303,0.688,5.859,-5.737,-28.564
-1.052,0.312,0.640,-9.460,4.517,-22.095
-1.089,0.323,0.610,-23.865,14.465,-14.587
-1.074,0.340,0.577,-31.616,20.081,-8.362
-1.061,0.362,0.490,-32.410,21.423,-6.104
-1.014,0.378,0.384,-26.672,21.179,-6.897
-0.958,0.399,0.328,-22.034,20.020,-8.301
-0.911,0.421,0.297,-20.508,20.020,-8.606
-0.860,0.416,0.259,-19.409,21.851,-9.583
-0.823,0.403,0.252,-18.738,23.010,-11.292
-0.797,0.352,0.275,-16.968,21.973,-13.550
-0.770,0.301,0.267,-10.254,18.921,-15.320
-0.742,0.296,0.262,-2.502,14.709,-15.991
-0.700,0.324,0.252,4.639,12.634,-13.977
-0.640,0.372,0.247,9.949,12.451,-9.033
-0.580,0.429,0.248,12.634,12.939,-3.906
-0.522,0.491,0.272,12.817,14.221,0.977
-0.482,0.543,0.280,12.390,16.724,5.066
-0.422,0.580,0.262,12.695,16.663,7.324
-0.348,0.612,0.261,11.230,11.108,6.531
-0.292,0.623,0.240,10.071,5.554,4.089
-0.278,0.624,0.247,6.042,2.136,1.587
-0.276,0.616,0.293,-1.221,-0.427,0.671
-0.241,0.621,0.363,-9.216,-1.709,2.869
-0.183,0.632,0.443,-17.517,-0.427,6.836
-0.161,0.670,0.529,-22.156,3.052,8.911
-0.143,0.692,0.589,-16.479,5.127,5.493
-0.136,0.672,0.575,-1.221,4.150,-1.831
-0.156,0.652,0.540,15.137,1.953,-10.498
-0.198,0.632,0.479,27.283,0.916,-15.991
-0.238,0.636,0.435,29.602,1.526,-14.282
-0.253,0.656,0.438,20.935,3.479,-6.409
-0.264,0.703,0.485,7.019,6.165,4.150
-0.222,0.744,0.523,-4.028,8.789,14.832
-0.164,0.788,0.554,-11.047,9.766,21.301
-0.095,0.829,0.585,-14.160,9.949,20.752
-0.066,0.844,0.599,-12.268,8.423,14.526
-0.043,0.841,0.609,-7.446,6.042,5.615
-0.067,0.829,0.604,-2.869,4.883,-3.662
-0.093,0.810,0.586,0.244,4.028,-10.315
-0.116,0.794,0.568,0.854,3.723,-13.916
-0.134,0.784,0.567,-1.221,3.906,-13.733
-0.110,0.771,0.573,-3.845,4.211,-11.963
-0.086,0.777,0.589,-5.554,5.188,-9.399
-0.059,0.775,0.587,-6.165,6.836,-7.996
-0.053,0.807,0.617,-6.958,7.507,-7.935
-0.069,0.825,0.622,-3.784,8.179,-9.949
-0.052,0.822,0.582,3.296,7.446,-12.451
-0.066,0.813,0.547,7.812,4.883,-14.648
-0.081,0.801,0.535,7.385,2.441,-16.602
-0.097,0.766,0.531,4.028,-0.061,-16.602
-0.093,0.743,0.545,0.427,-0.793,-13.062
-0.087,0.734,0.568,-3.052,0.854,-8.362
-0.058,0.733,0.583,-5.066,2.625,-4.883
-0.025,0.749,0.591,-5.005,4.028,-3.540
-0.021,0.734,0.570,-4.028,4.395,-3.723
-0.026,0.754,0.586,-3.235,3.235,-3.967
-0.020,0.759,0.589,-0.977,1.709,-3.967
-0.024,0.768,0.598,0.671,0.244,-3.418
-0.032,0.788,0.603,1.526,0.305,-2.747
-0.032,0.802,0.599,2.991,-0.366,-3.052
-0.025,0.798,0.595,5.249,-2.075,-3.906
-0.022,0.778,0.590,6.042,-3.052,-4.822
-0.029,0.755,0.593,5.615,-3.540,-4.822
-0.045,0.741,0.609,4.150,-3.662,-3.540
-0.049,0.733,0.641,2.380,-3.296,-0.427
-0.055,0.709,0.642,2.319,-2.258,4.822
-0.030,0.728,0.652,2.808,0.305,11.719
-0.011,0.748,0.645,3.601,3.662,16.724
-0.003,0.777,0.656,5.005,4.761,18.433
-0.013,0.774,0.648,8.667,3.052,17.029
-0.026,0.784,0.638,14.343,0.183,13.123
-0.025,0.773,0.582,21.362,-1.892,8.667
-0.022,0.770,0.537,25.024,-4.578,5.005
-0.016,0.768,0.527,23.071,-5.981,2.747
-0.034,0.754,0.541,16.968,-5.554,2.136
-0.024,0.756,0.554,9.338,-4.150,4.150
0.009,0.745,0.581,2.563,-3.662,5.920
0.035,0.737,0.639,-2.197,-3.235,6.287
0.038,0.731,0.680,-2.258,-0.977,4.395
0.017,0.727,0.667,3.296,2.441,0.610
0.009,0.722,0.641,11.292,4.211,-4.456
-0.017,0.716,0.604,17.578,4.395,-7.446
-0.050,0.711,0.571,20.264,4.517,-8.545
-0.084,0.708,0.568,19.592,2.869,-7.446
-0.103,0.706,0.558,16.479,2.502,-4.211
-0.089,0.715,0.571,10.986,2.808,0.732
-0.062,0.729,0.594,4.517,3.296,6.714
-0.027,0.738,0.611,-0.061,3.601,10.681
-0.001,0.749,0.636,-1.770,3.967,11.658
0.010,0.751,0.663,-0.916,2.869,9.277

1.353,0.990,0.750,52.490,-12.695,35.950
1.474,1.121,0.701,68.787,-14.587,26.062
1.542,1.215,0.696,71.045,-17.822,15.686
1.553,1.266,0.804,53.955,-18.921,10.864
1.557,1.219,0.984,25.513,-19.775,10.742
1.530,1.131,1.145,-2.747,-18.250,15.747
1.438,1.057,1.333,-24.902,-10.742,24.536
1.280,0.995,1.476,-34.729,1.526,34.668
1.070,0.972,1.494,-25.269,12.512,41.077
0.798,1.013,1.413,-3.174,17.700,41.321
0.526,1.067,1.263,22.034,18.799,38.574
0.307,1.097,1.165,33.508,16.602,35.645
0.104,1.106,1.103,28.870,11.780,32.593
-0.102,1.118,1.079,12.512,10.010,29.297
-0.278,1.095,1.011,-8.118,12.390,24.170
-0.423,1.038,0.952,-28.809,11.780,13.977
-0.618,0.924,0.926,-47.852,6.775,-2.625
-0.870,0.745,0.913,-58.289,-0.793,-22.644
-1.153,0.539,0.959,-63.416,-9.644,-43.335
-1.450,0.377,0.990,-64.697,-15.259,-55.115
-1.671,0.281,0.974,-53.772,-18.494,-53.040
-1.688,0.269,0.976,-39.551,-18.860,-35.889
-1.602,0.313,0.954,-34.058,-12.939,-10.376
-1.427,0.358,0.881,-32.959,-3.357,13.306
-1.283,0.428,0.792,-33.203,2.869,25.513
-1.154,0.488,0.702,-32.349,0.366,22.156
-1.116,0.572,0.635,-29.541,-4.089,8.545
-1.101,0.565,0.522,-19.592,-3.906,-8.911
-1.107,0.488,0.396,-9.888,-5.493,-25.391
-1.084,0.396,0.345,-8.118,-9.827,-35.706
-1.055,0.318,0.291,-11.597,-10.437,-36.011
-1.006,0.279,0.216,-16.418,-3.723,-27.954
-0.933,0.274,0.193,-23.987,3.296,-17.883
-0.859,0.293,0.216,-29.053,8.484,-10.315
-0.774,0.324,0.264,-27.771,10.132,-8.240
-0.727,0.318,0.301,-20.020,8.301,-10.986
-0.698,0.328,0.326,-5.981,8.057,-13.123
-0.632,0.396,0.323,7.812,9.216,-12.512
-0.562,0.469,0.307,17.883,8.606,-8.972
-0.476,0.555,0.323,20.630,9.766,-3.784
-0.378,0.634,0.355,15.137,14.404,3.418
-0.323,0.688,0.419,4.395,18.494,8.850
-0.277,0.736,0.471,-3.357,18.311,8.972
-0.210,0.761,0.488,-0.366,17.944,3.784
-0.210,0.761,0.472,8.728,19.836,-4.822
-0.224,0.737,0.418,21.973,21.851,-15.015
-0.274,0.711,0.341,34.363,21.790,-24.048
-0.322,0.710,0.286,40.527,20.447,-28.076
-0.337,0.717,0.257,36.438,19.653,-25.391
-0.337,0.712,0.277,23.376,19.287,-18.677
-0.321,0.705,0.334,7.324,19.531,-11.169
-0.300,0.672,0.388,-5.554,20.081,-6.226
-0.273,0.651,0.458,-14.526,20.569,-4.395
-0.246,0.612,0.510,-17.761,21.301,-4.578
-0.226,0.561,0.537,-15.381,20.752,-5.493
-0.217,0.560,0.555,-8.728,20.081,-5.798
-0.196,0.598,0.558,-1.221,18.311,-6.042
-0.197,0.647,0.558,5.310,17.151,-6.226
-0.190,0.697,0.536,8.972,17.578,-5.249
-0.174,0.714,0.500,9.521,17.883,-4.456
-0.175,0.770,0.515,5.554,17.883,-3.662
-0.167,0.776,0.496,4.517,17.822,-3.845
-0.171,0.790,0.490,1.831,16.113,-4.150
-0.178,0.777,0.503,-2.869,13.672,-4.456
-0.188,0.755,0.522,-8.301,11.780,-4.089
-0.176,0.738,0.535,-12.634,10.742,-2.258
-0.146,0.731,0.553,-15.320,9.460,-0.244
-0.133,0.713,0.575,-15.320,8.545,0.183
-0.131,0.697,0.582,-11.108,7.690,-1.526
-0.118,0.696,0.598,-3.662,4.944,-3.845
-0.128,0.707,0.580,4.700,3.418,-5.371
-0.142,0.739,0.566,10.742,2.808,-6.287
-0.143,0.769,0.553,13.367,3.113,-6.165
-0.130,0.791,0.551,11.902,4.089,-4.822
-0.111,0.797,0.563,8.118,4.822,-3.662
-0.082,0.794,0.578,4.395,4.883,-2.136
-0.071,0.782,0.595,1.770,3.906,-2.014
-0.063,0.771,0.600,1.587,3.174,-2.502
-0.060,0.764,0.590,2.808,3.052,-3.052
-0.086,0.767,0.580,3.906,3.418,-3.113
-0.093,0.771,0.573,4.089,3.113,-3.479
-0.092,0.769,0.575,4.395,2.197,-4.089
-0.104,0.762,0.578,5.066,1.526,-4.822
-0.095,0.749,0.582,6.042,0.549,-5.798
-0.079,0.735,0.585,6.348,-0.977,-6.226
-0.068,0.725,0.586,5.859,-1.526,-5.676
-0.062,0.725,0.590,4.456,-1.038,-4.456
-0.069,0.740,0.607,1.343,-0.122,-2.747
-0.063,0.747,0.614,-1.648,1.892,-0.427
-0.058,0.746,0.623,-3.967,3.296,1.099
-0.055,0.749,0.634,-4.944,3.784,1.587
-0.062,0.749,0.626,-2.563,3.601,0.610
-0.063,0.745,0.609,1.587,2.625,-1.099
-0.062,0.736,0.589,4.944,0.122,-2.686
-0.069,0.739,0.580,6.531,-2.014,-3.601
-0.073,0.744,0.581,6.531,-2.380,-2.930
-0.077,0.747,0.591,4.089,-1.831,-1.404
-0.064,0.738,0.618,0.244,-0.977,-0.244
-0.044,0.724,0.646,-2.686,0.061,0.854
-0.026,0.713,0.662,-3.418,2.197,1.343
-0.023,0.707,0.674,-2.258,4.089,0.427
-0.032,0.701,0.664,0.854,5.920,-1.099
-0.039,0.715,0.652,4.456,7.080,-1.648
-0.051,0.740,0.623,7.446,8.667,-1.526
-0.065,0.768,0.592,8.423,10.437,-0.977
-0.052,0.772,0.548,7.629,10.498,-1.160
-0.067,0.808,0.576,3.052,9.644,-1.953
-0.060,0.785,0.559,2.258,10.132,-3.601
-0.062,0.753,0.559,0.977,8.118,-3.845
-0.068,0.745,0.583,-1.221,6.958,-3.174
-0.070,0.735,0.602,-1.892,7.202,-2.075
-0.066,0.725,0.603,-1.160,7.812,-0.977
-0.064,0.738,0.591,-0.061,7.996,-0.549
-0.069,0.748,0.580,1.831,6.348,-0.793
-0.081,0.755,0.566,4.700,4.395,-2.502
-0.091,0.753,0.554,7.324,2.563,-4.028
-0.094,0.742,0.557,7.935,0.671,-4.761
-0.096,0.729,0.560,7.141,-0.244,-4.639
-0.083,0.724,0.571,5.249,-0.366,-3.418

0.920,1.006,0.845,14.404,-6.348,57.861
0.975,1.099,0.862,20.752,-12.695,52.917
1.033,1.206,0.900,25.085,-21.912,45.105
1.087,1.272,0.962,27.649,-25.635,37.109
1.110,1.293,1.046,21.606,-20.752,28.687
1.124,1.272,1.135,12.817,-9.644,21.545
1.110,1.186,1.185,6.592,-1.648,16.113
1.055,1.077,1.141,9.460,0.000,12.390
0.977,1.039,1.052,24.780,2.502,10.864
0.911,1.061,0.960,45.654,1.709,10.254
0.858,1.079,0.864,64.819,-3.540,9.399
0.803,1.100,0.843,70.496,-7.019,5.981
0.677,1.117,0.898,59.937,-8.545,3.052
0.480,1.078,0.974,42.175,-9.155,2.075
0.265,1.044,1.000,22.949,-7.690,2.625
0.057,1.055,1.028,1.160,-5.493,4.578
-0.203,1.019,1.046,-21.423,-3.784,4.517
-0.413,0.965,1.078,-36.865,-4.211,3.113
-0.671,0.906,1.175,-46.936,-7.874,-0.305
-0.898,0.883,1.232,-49.866,-9.949,-4.028
-1.130,0.857,1.252,-45.349,-9.399,-9.399
-1.284,0.771,1.190,-35.889,-8.301,-18.311
-1.387,0.664,1.030,-21.790,-6.470,-26.245
-1.440,0.574,0.849,-10.193,-4.395,-30.334
-1.495,0.491,0.675,-9.949,-4.395,-31.982
-1.537,0.467,0.534,-18.005,-6.531,-29.602
-1.487,0.486,0.486,-28.992,-5.920,-22.400
-1.350,0.520,0.486,-42.480,-2.441,-13.062
-1.187,0.500,0.484,-50.781,4.700,-8.057
-1.045,0.447,0.487,-51.208,11.047,-10.925
-0.924,0.368,0.448,-38.757,11.108,-21.545
-0.834,0.322,0.419,-20.813,6.775,-35.828
-0.805,0.328,0.343,-0.793,6.470,-46.753
-0.770,0.374,0.243,14.648,9.460,-51.270
-0.766,0.450,0.150,20.203,13.733,-49.316
-0.734,0.528,0.084,16.663,15.869,-44.678
-0.656,0.595,0.062,9.216,14.526,-40.466
-0.546,0.628,0.136,0.061,12.329,-38.696
-0.447,0.646,0.220,-7.446,13.977,-38.696
-0.413,0.650,0.312,-13.977,17.822,-40.527
-0.399,0.663,0.431,-18.982,20.020,-45.471
-0.394,0.613,0.487,-16.846,21.973,-49.927
-0.419,0.582,0.486,-8.972,28.015,-53.223
-0.478,0.557,0.437,1.282,32.715,-53.955
-0.483,0.543,0.353,12.024,33.752,-51.514
-0.456,0.536,0.278,17.944,34.851,-44.617
-0.423,0.536,0.214,13.855,38.208,-34.912
-0.405,0.549,0.214,1.892,39.185,-24.719
-0.394,0.561,0.216,-8.179,35.339,-16.968
-0.351,0.584,0.246,-11.719,29.846,-12.085
-0.314,0.610,0.293,-12.146,24.414,-11.536
-0.269,0.649,0.354,-9.094,20.325,-13.367
-0.273,0.638,0.378,-2.380,16.296,-17.639
-0.257,0.620,0.363,2.747,13.977,-22.461
-0.248,0.596,0.349,8.057,10.681,-26.367
-0.249,0.569,0.333,10.010,7.507,-27.771
-0.253,0.572,0.321,11.108,7.141,-24.353
-0.247,0.591,0.346,7.935,8.423,-18.127
-0.228,0.615,0.404,1.770,10.315,-11.169
-0.178,0.629,0.470,-3.479,12.146,-5.737
-0.119,0.639,0.521,-5.493,13.855,-3.418
-0.065,0.655,0.560,-4.089,16.052,-3.113
-0.046,0.667,0.585,-1.892,17.700,-4.089
-0.028,0.691,0.576,4.456,17.456,-5.310
-0.001,0.695,0.556,10.803,13.306,-8.179
-0.008,0.717,0.548,13.733,7.263,-9.277
-0.020,0.719,0.520,16.968,5.371,-7.629
-0.026,0.729,0.512,14.160,5.554,-5.859
-0.029,0.748,0.524,8.362,6.958,-3.418
-0.024,0.758,0.543,2.502,8.545,-1.404
-0.015,0.754,0.556,-0.061,8.728,-1.160
-0.010,0.737,0.552,1.160,8.362,-2.869
0.000,0.726,0.543,5.432,7.141,-5.066
-0.010,0.712,0.535,8.301,5.432,-7.446
-0.031,0.712,0.528,9.338,5.371,-7.751
-0.049,0.716,0.551,6.714,6.348,-5.920
-0.032,0.712,0.580,1.648,7.263,-3.052
-0.013,0.716,0.604,-5.005,7.324,0.854
0.002,0.714,0.659,-10.742,5.432,2.502
0.029,0.699,0.692,-11.963,2.319,1.892
0.042,0.687,0.706,-6.409,1.282,0.122
0.040,0.683,0.680,1.526,1.404,-1.404
0.047,0.692,0.645,9.277,1.648,-1.465
0.032,0.719,0.602,13.916,2.136,-0.244
0.008,0.738,0.567,14.160,3.296,1.343
-0.002,0.757,0.540,10.925,3.845,3.662
-0.003,0.764,0.539,5.798,3.052,6.042
0.005,0.763,0.562,0.366,1.709,8.423
0.021,0.752,0.599,-2.747,1.343,10.254
0.052,0.742,0.639,-3.662,1.038,10.864
0.073,0.725,0.668,-2.563,1.038,10.437
0.072,0.731,0.687,0.000,0.549,9.399
0.071,0.745,0.689,3.723,1.038,8.972
0.073,0.763,0.695,5.554,2.869,10.010
0.068,0.785,0.700,5.310,6.104,12.207
0.065,0.812,0.684,5.249,9.949,14.526
0.085,0.839,0.671,5.981,12.085,15.076
0.098,0.850,0.647,7.385,13.672,13.306
0.108,0.848,0.600,8.423,13.794,8.850
0.083,0.848,0.559,8.606,12.207,3.662
0.047,0.830,0.547,7.202,11.230,-0.244
0.014,0.805,0.536,4.028,11.414,-0.732
-0.010,0.782,0.529,-0.061,11.902,1.404
-0.015,0.773,0.525,-3.235,12.756,3.906
-0.013,0.763,0.526,-5.066,13.550,5.859
-0.009,0.756,0.536,-5.371,14.221,6.958
-0.001,0.751,0.550,-3.906,13.794,7.324
-0.010,0.752,0.538,0.671,12.268,6.592
0.016,0.762,0.521,6.836,8.972,4.761
0.037,0.777,0.507,11.536,5.371,2.625
0.030,0.774,0.501,12.085,4.578,0.427
0.019,0.785,0.501,9.399,4.028,1.099
0.012,0.795,0.512,5.859,3.174,3.296
0.021,0.808,0.527,1.953,3.418,5.676
0.031,0.813,0.546,-1.099,4.639,7.019
0.040,0.817,0.566,-3.235,5.310,6.897
0.050,0.804,0.583,-3.113,5.371,5.615
0.059,0.793,0.584,-1.221,5.798,3.418
0.044,0.796,0.585,1.770,5.615,-0.305

1.068,0.937,0.775,27.649,-16.846,17.517
1.277,0.964,0.748,35.522,-15.686,23.560
1.451,1.007,0.703,41.626,-14.587,31.677
1.568,1.126,0.732,42.847,-17.639,40.222
1.639,1.229,0.790,44.617,-28.687,45.410
1.616,1.436,0.985,39.917,-41.138,48.401
1.561,1.565,1.221,35.095,-45.532,48.889
1.513,1.575,1.370,39.429,-40.283,46.204
1.415,1.492,1.467,48.157,-28.809,36.682
1.177,1.350,1.507,53.955,-14.160,20.813
0.873,1.161,1.437,60.486,-0.732,4.211
0.488,1.022,1.311,56.641,7.996,-5.981
0.203,0.965,1.213,39.734,14.648,-4.883
-0.033,0.956,1.173,5.615,24.963,8.179
-0.225,0.950,1.190,-37.415,38.147,26.794
-0.364,0.947,1.217,-75.317,47.974,41.382
-0.463,0.935,1.213,-96.069,52.307,46.387
-0.547,0.912,1.178,-96.436,52.307,39.246
-0.637,0.854,1.132,-82.397,47.424,19.470
-0.797,0.743,1.058,-57.922,37.720,-10.437
-0.994,0.610,0.978,-31.006,24.597,-44.678
-1.304,0.480,0.888,-7.996,8.240,-73.792
-1.576,0.356,0.750,11.230,-6.287,-87.158
-1.634,0.295,0.688,18.799,-20.935,-79.834
-1.516,0.244,0.667,8.545,-23.376,-56.702
-1.358,0.209,0.635,-10.803,-11.841,-30.701
-1.188,0.206,0.621,-27.344,-2.197,-14.099
-1.051,0.204,0.569,-31.067,2.075,-8.789
-0.944,0.185,0.477,-20.874,2.686,-12.939
-0.914,0.179,0.356,-6.226,-1.160,-21.484
-0.913,0.202,0.250,5.432,-3.540,-28.503
-0.883,0.249,0.182,9.766,-4.639,-29.907
-0.842,0.311,0.163,4.883,-3.662,-26.672
-0.817,0.360,0.153,-3.052,-0.793,-20.691
-0.740,0.411,0.142,-11.414,1.343,-15.381
-0.652,0.483,0.197,-22.095,1.221,-11.719
-0.578,0.530,0.237,-27.527,2.991,-8.972
-0.527,0.580,0.302,-30.579,6.714,-7.812
-0.488,0.594,0.353,-27.893,8.545,-8.972
-0.433,0.590,0.376,-19.531,11.414,-10.498
-0.396,0.612,0.372,-10.803,15.686,-10.864
-0.366,0.636,0.363,-2.747,19.958,-11.108
-0.331,0.648,0.316,4.883,21.484,-12.573
-0.300,0.661,0.290,9.888,18.921,-14.893
-0.279,0.671,0.287,12.207,15.015,-16.968
-0.276,0.689,0.264,13.306,14.465,-18.433
-0.253,0.708,0.240,11.475,14.954,-19.043
-0.247,0.761,0.239,5.066,14.038,-19.409
-0.232,0.778,0.248,-2.136,11.841,-21.179
-0.218,0.786,0.282,-9.583,11.536,-22.827
-0.203,0.779,0.344,-16.235,12.878,-24.170
-0.194,0.758,0.383,-20.508,13.977,-26.245
-0.193,0.729,0.403,-21.179,14.526,-28.503
-0.196,0.687,0.445,-18.860,11.963,-30.884
-0.184,0.635,0.495,-15.747,8.362,-31.982
-0.193,0.597,0.517,-11.475,7.874,-30.090
-0.170,0.589,0.540,-7.568,9.521,-25.085
-0.136,0.597,0.563,-5.127,11.902,-18.677
-0.114,0.624,0.570,-2.625,16.663,-12.756
-0.113,0.653,0.539,0.732,20.752,-9.277
-0.135,0.683,0.502,4.211,20.508,-8.423
-0.106,0.743,0.474,6.836,18.066,-8.179
-0.098,0.752,0.458,6.165,16.785,-9.460
-0.099,0.759,0.445,2.075,14.343,-10.925
-0.068,0.743,0.467,-1.526,9.521,-12.512
-0.057,0.718,0.496,-4.211,4.822,-13.855
-0.037,0.704,0.543,-5.737,1.221,-14.526
-0.023,0.681,0.590,-5.981,-0.916,-14.099
-0.007,0.670,0.612,-4.883,-1.343,-12.634
-0.007,0.672,0.628,-3.052,-0.183,-10.132
0.000,0.685,0.622,-1.038,1.709,-7.385
0.005,0.704,0.607,2.014,3.967,-5.127
0.006,0.742,0.608,5.554,6.531,-4.333
0.015,0.777,0.612,11.597,9.338,-4.883
0.028,0.765,0.567,19.775,11.230,-7.629
0.015,0.789,0.568,23.743,9.277,-11.414
0.013,0.784,0.529,30.212,6.042,-14.771
0.009,0.773,0.535,30.579,3.113,-14.893
0.003,0.771,0.554,25.024,2.319,-10.742
0.020,0.763,0.585,16.846,4.150,-5.066
0.040,0.756,0.628,8.545,7.324,0.732
0.068,0.757,0.654,4.272,9.949,4.639
0.088,0.747,0.659,4.639,9.827,4.333
0.099,0.733,0.648,8.484,8.301,1.465
0.087,0.727,0.629,14.343,7.507,-1.831
0.049,0.733,0.597,18.738,7.690,-4.028
0.028,0.746,0.556,20.264,7.568,-4.089
0.023,0.758,0.532,17.212,7.507,-1.953
0.022,0.769,0.517,10.376,8.301,2.197
0.019,0.777,0.528,2.991,9.338,6.836
0.031,0.778,0.547,-2.747,9.766,10.193
0.040,0.782,0.571,-7.812,7.629,11.902
0.059,0.771,0.598,-9.705,3.662,10.620
0.070,0.774,0.635,-7.202,1.282,7.324
0.066,0.761,0.648,-1.953,-0.732,2.808
0.089,0.748,0.646,4.578,-2.441,-2.197
0.086,0.728,0.626,9.766,-2.686,-5.920
0.062,0.714,0.604,12.451,-1.831,-7.080
0.042,0.717,0.587,11.963,0.305,-5.432
0.026,0.717,0.574,9.521,2.380,-2.136
0.018,0.728,0.541,6.775,3.967,3.357
0.033,0.765,0.532,4.395,3.784,8.240
0.050,0.796,0.543,2.502,3.235,10.498
0.057,0.811,0.551,1.282,3.540,11.108
0.065,0.819,0.559,0.488,2.930,9.521
0.079,0.818,0.572,0.549,0.854,5.798
0.083,0.791,0.585,0.671,-1.831,0.854
0.060,0.774,0.606,1.953,-3.052,-3.235
0.051,0.744,0.597,5.066,-3.723,-4.822
0.051,0.726,0.603,5.554,-4.150,-5.310
0.042,0.725,0.618,4.333,-3.662,-3.540
0.040,0.727,0.629,3.174,-2.441,-0.244
0.048,0.742,0.634,2.380,-1.343,2.502
0.044,0.754,0.627,2.808,-0.122,3.296
0.061,0.766,0.624,4.456,0.122,3.052
0.067,0.762,0.603,5.371,-0.610,2.075
0.048,0.776,0.605,5.371,-0.366,0.549
0.036,0.766,0.597,6.531,0.000,-0.305
0.035,0.754,0.594,6.836,-0.183,-0.183

0.998,0.703,0.793,6.409,-10.559,68.420
1.053,0.754,0.744,20.325,-18.860,63.904
1.088,0.823,0.704,42.297,-40.283,59.326
1.112,0.935,0.677,68.054,-54.443,56.641
1.129,1.062,0.691,85.022,-54.749,55.420
1.086,1.165,0.750,83.740,-49.744,53.162
1.009,1.191,0.803,67.566,-41.504,50.415
0.888,1.196,0.896,37.292,-26.855,52.673
0.726,1.209,1.063,1.648,-8.728,61.157
0.591,1.231,1.229,-26.917,5.981,69.946
0.515,1.270,1.330,-43.274,15.930,72.693
0.373,1.306,1.372,-51.147,17.944,64.087
0.196,1.317,1.328,-50.537,16.418,46.448
0.029,1.287,1.251,-48.645,12.878,23.315
-0.192,1.206,1.220,-50.781,5.859,0.610
-0.455,1.062,1.210,-59.326,0.916,-16.113
-0.716,0.892,1.201,-72.510,-2.625,-25.635
-0.880,0.719,1.234,-79.102,-8.789,-30.151
-0.978,0.603,1.270,-76.355,-11.658,-31.311
-1.107,0.537,1.263,-66.223,-10.559,-32.471
-1.204,0.467,1.162,-47.241,-9.583,-37.964
-1.250,0.412,1.024,-25.391,-11.658,-44.983
-1.230,0.366,0.891,-8.057,-14.526,-50.415
-1.202,0.328,0.739,1.648,-12.512,-53.040
-1.151,0.309,0.593,4.578,-5.920,-51.941
-1.138,0.308,0.468,0.793,1.892,-47.607
-1.125,0.294,0.362,-8.667,9.216,-41.870
-1.072,0.300,0.308,-20.264,13.245,-34.424
-1.001,0.308,0.282,-28.198,19.470,-27.466
-0.986,0.321,0.241,-29.053,26.428,-23.499
-0.931,0.315,0.191,-21.973,28.809,-23.132
-0.866,0.341,0.180,-16.479,25.208,-25.452
-0.811,0.378,0.239,-16.113,19.897,-27.344
-0.767,0.373,0.293,-17.151,15.808,-26.855
-0.697,0.353,0.367,-19.226,11.475,-25.696
-0.612,0.352,0.410,-18.005,8.545,-23.804
-0.553,0.372,0.421,-10.437,11.414,-20.752
-0.490,0.404,0.403,-2.136,17.822,-19.043
-0.472,0.453,0.373,3.906,21.484,-18.799
-0.470,0.499,0.326,10.376,22.888,-19.226
-0.437,0.550,0.276,15.076,22.949,-17.883
-0.387,0.609,0.245,13.794,23.560,-14.282
-0.353,0.671,0.244,5.798,27.222,-9.827
-0.323,0.727,0.268,-1.648,30.640,-6.104
-0.297,0.741,0.294,-6.531,30.884,-5.554
-0.257,0.710,0.310,-9.521,28.381,-9.216
-0.248,0.679,0.326,-12.390,24.353,-14.465
-0.254,0.622,0.358,-13.672,19.592,-20.203
-0.264,0.557,0.427,-13.672,14.709,-23.254
-0.268,0.507,0.455,-11.658,13.611,-21.301
-0.251,0.487,0.496,-9.277,14.954,-14.587
-0.242,0.518,0.531,-6.470,14.954,-7.935
-0.209,0.550,0.528,-0.549,14.709,-2.441
-0.157,0.600,0.531,5.920,12.451,1.038
-0.113,0.656,0.511,10.864,9.399,1.526
-0.104,0.696,0.478,15.320,8.118,-0.061
-0.120,0.736,0.465,16.052,7.751,-1.892
-0.118,0.758,0.471,12.512,6.958,-2.808
-0.118,0.762,0.501,5.798,6.897,-2.563
-0.105,0.750,0.507,-0.977,8.240,-1.892
-0.087,0.735,0.514,-6.409,9.216,-1.343
-0.067,0.715,0.524,-10.437,8.667,-1.770
-0.048,0.694,0.548,-12.329,6.287,-3.052
-0.037,0.677,0.573,-11.353,4.517,-4.089
-0.042,0.669,0.586,-8.728,3.052,-4.333
-0.067,0.673,0.590,-5.188,2.380,-3.906
-0.078,0.692,0.583,-1.221,2.686,-1.587
-0.064,0.723,0.574,1.465,2.502,1.709
-0.054,0.751,0.567,1.709,2.747,4.883
-0.039,0.783,0.575,-0.061,4.089,7.202
-0.035,0.820,0.585,-1.831,5.310,7.263
-0.010,0.821,0.573,-0.793,6.104,6.165
-0.000,0.821,0.573,-0.488,6.958,3.906
0.003,0.813,0.572,-1.038,7.263,0.916
-0.001,0.789,0.563,-0.061,6.592,-2.136
-0.005,0.803,0.555,1.099,5.859,-3.967
-0.041,0.786,0.531,2.136,5.798,-4.944
-0.078,0.781,0.534,1.099,4.456,-4.944
-0.089,0.777,0.542,0.122,2.502,-4.211
-0.085,0.763,0.559,-0.244,0.610,-2.625
-0.078,0.757,0.569,0.244,0.244,-0.610
-0.064,0.755,0.572,1.892,0.549,1.160
-0.037,0.759,0.566,4.517,-0.366,2.075
-0.021,0.772,0.569,6.592,-0.977,2.319
-0.009,0.795,0.567,7.812,-0.488,2.991
-0.001,0.820,0.564,7.874,0.488,3.967
0.007,0.836,0.559,6.470,1.770,4.272
0.018,0.824,0.516,3.601,2.563,4.333
-0.011,0.876,0.569,-3.845,2.258,4.028
-0.028,0.876,0.588,-4.822,2.563,2.869
-0.016,0.834,0.573,-2.441,2.625,2.258
-0.015,0.826,0.578,-1.221,2.625,2.258
-0.000,0.802,0.569,0.122,2.197,1.587
0.005,0.795,0.566,1.526,0.732,1.099
0.000,0.797,0.565,1.831,0.183,1.343
0.001,0.797,0.570,1.282,0.305,2.136
-0.004,0.799,0.577,0.366,0.793,2.808
-0.004,0.801,0.582,0.061,1.648,2.380
-0.010,0.800,0.587,0.977,2.502,0.916
-0.015,0.792,0.583,3.113,2.502,-1.587
-0.022,0.781,0.567,5.859,2.380,-3.418
-0.024,0.781,0.558,8.240,2.319,-4.211
-0.033,0.777,0.553,8.911,2.747,-4.272
-0.035,0.777,0.556,8.118,3.601,-3.845
-0.032,0.783,0.550,7.629,4.822,-2.441
-0.022,0.789,0.545,6.958,4.456,-0.916
-0.010,0.786,0.543,6.653,3.479,-0.122
-0.029,0.771,0.541,5.981,3.235,0.183
-0.024,0.785,0.546,6.287,2.625,0.977
-0.025,0.787,0.556,7.812,1.038,-0.671
-0.037,0.777,0.553,8.667,0.854,-2.625
-0.046,0.769,0.545,9.277,0.671,-3.662
-0.045,0.755,0.542,9.705,-0.732,-3.540
-0.047,0.748,0.547,9.338,-1.282,-2.502
-0.042,0.744,0.550,8.179,-0.671,-1.282
-0.035,0.744,0.553,6.409,-0.244,-0.366
-0.031,0.746,0.569,3.601,0.427,1.282
-0.020,0.746,0.597,1.892,2.136,2.991
-0.008,0.763,0.606,1.709,4.822,4.517

